"Time (s)","Acceleration x (m/s^2)","Acceleration y (m/s^2)","Acceleration z (m/s^2)"
2.343444830E-1,9.576806426E-2,3.201047659E0,9.284713745E0
4.847412110E-1,3.160346150E-1,3.385401249E0,9.011775017E0
7.352905280E-1,1.675941199E-1,3.031059265E0,9.095572472E0
9.860229490E-1,4.022258818E-1,3.143586874E0,8.995016098E0
1.236511231E0,1.436520964E-1,3.031059265E0,9.014169693E0
1.487060547E0,2.322375625E-1,3.201047659E0,9.311050415E0
1.737670899E0,2.825157940E-1,3.105279684E0,9.181763649E0
1.988250733E0,1.867477298E-1,3.086126089E0,9.112331390E0
2.238677979E0,4.932055473E-1,3.160346270E0,9.193734169E0
2.489257813E0,2.011129409E-1,2.918531895E0,9.138668060E0
2.739685059E0,4.213795066E-1,3.165134668E0,8.966285706E0
2.990234375E0,4.860229492E-1,3.191470861E0,9.344569206E0
3.240753174E0,2.968810201E-1,2.944868088E0,8.983044624E0
3.491455078E0,3.256114423E-1,2.882618904E0,8.983044624E0
3.741943360E0,4.429273009E-1,3.059789658E0,8.784325600E0
3.992645264E0,5.674257874E-1,3.131615877E0,9.133879662E0
4.242980957E0,2.873041928E-1,3.028665066E0,9.287108421E0
4.493316651E0,3.711012602E-1,3.160346270E0,9.050082207E0
4.743774414E0,4.285621047E-1,3.074155092E0,9.172186852E0
4.994384766E0,4.381389022E-1,3.059789658E0,9.076418877E0
5.244964600E0,4.309563041E-1,3.007117271E0,9.416395187E0
5.495391846E0,3.950432837E-1,2.980781078E0,9.062053680E0
5.745758057E0,4.788403511E-1,3.023876667E0,9.054870605E0
5.996429444E0,6.631938815E-1,3.023876667E0,8.978256226E0
6.246887207E0,3.974374831E-1,2.908955097E0,9.454702377E0
6.497344971E0,4.046200812E-1,2.837129116E0,9.378087997E0
6.747924805E0,4.572925270E-1,2.875436306E0,9.047688484E0
6.998413086E0,4.764461517E-1,2.873042107E0,9.323021889E0
7.248962403E0,5.291185975E-1,2.954444885E0,9.138668060E0
7.499694824E0,4.501099288E-1,2.949656487E0,9.263166428E0
7.750183106E0,5.219359994E-1,2.975992680E0,9.081207275E0
8.000671387E0,6.344634295E-1,2.999934673E0,8.947132111E0
8.251037598E0,5.554547906E-1,2.995146275E0,9.090784073E0
8.501495362E0,4.501099288E-1,2.918531895E0,9.097966194E0
8.752075196E0,5.075707436E-1,2.877830505E0,9.330204010E0
9.002716065E0,5.027823448E-1,2.880224705E0,9.162610054E0
9.253173828E0,4.596867263E-1,2.887407303E0,9.035717010E0
9.503631592E0,6.392518282E-1,2.930502892E0,9.437943459E0
9.754150391E0,5.841852427E-1,2.837129116E0,9.198522568E0
1.000491333E1,5.578489900E-1,2.827552319E0,8.872911453E0
1.025515747E1,4.884171486E-1,2.789244890E0,9.320627213E0
1.050576782E1,6.416460276E-1,2.865859509E0,9.239224434E0
1.075656128E1,5.267243981E-1,2.837129116E0,9.100360870E0
1.100711060E1,5.123591423E-1,2.786850691E0,9.145850182E0
1.125747681E1,5.722141862E-1,2.892195702E0,9.100360870E0
1.150787354E1,5.674257874E-1,2.849100113E0,9.078812599E0
1.175827026E1,4.884171486E-1,2.832340717E0,9.234436035E0
1.200869751E1,5.339069963E-1,2.837129116E0,9.229647636E0
1.225927734E1,5.386953950E-1,2.858676910E0,9.174580574E0
1.250961304E1,5.267243981E-1,2.806004286E0,9.153033257E0
1.276007080E1,5.339069963E-1,2.849100113E0,9.272743225E0
1.301065064E1,4.596867263E-1,2.791639090E0,9.114726067E0
1.326107788E1,5.363011956E-1,2.815581083E0,9.258378029E0
1.351184082E1,5.147533417E-1,2.844311714E0,9.081207275E0
1.376242066E1,4.884171486E-1,2.806004286E0,9.232041359E0
1.401293945E1,5.434837937E-1,2.837129116E0,9.133879662E0
1.426330566E1,5.530605912E-1,2.822763920E0,9.138668060E0
1.451394653E1,4.812345505E-1,2.789244890E0,9.430760384E0
1.476437378E1,5.386953950E-1,2.841917515E0,9.169792175E0
1.501504517E1,5.841852427E-1,2.865859509E0,9.074024200E0
1.526556396E1,4.501099288E-1,2.808398485E0,9.136273384E0
1.551608276E1,4.764461517E-1,2.794033289E0,9.236829758E0
1.576657105E1,5.339069963E-1,2.825158119E0,9.153033257E0
1.601721191E1,5.793967843E-1,2.834734917E0,9.284713745E0
1.626742554E1,6.153098345E-1,2.832340717E0,9.145850182E0
1.651803589E1,4.309563041E-1,2.806004286E0,9.215282440E0
1.676846314E1,5.123591423E-1,2.782062292E0,9.203310966E0
1.701885986E1,4.477157295E-1,2.770091295E0,9.263166428E0
1.726937866E1,6.177040339E-1,2.767697096E0,9.265560150E0
1.752001953E1,4.429273009E-1,2.724601507E0,9.260771751E0
1.777035522E1,5.770025849E-1,2.777273893E0,9.248801231E0
1.802093506E1,5.075707436E-1,2.762908697E0,9.196128845E0
1.827142334E1,5.650315881E-1,2.738966703E0,9.248801231E0
1.852194214E1,5.698199868E-1,2.782062292E0,9.239224434E0
1.877249146E1,4.836287498E-1,2.703053713E0,9.030928612E0
1.902294922E1,6.344634295E-1,2.796427488E0,9.114726067E0
1.927340698E1,5.985504389E-1,2.796427488E0,9.380482674E0
1.952392578E1,5.626373887E-1,2.770091295E0,9.181763649E0
1.977432251E1,5.291185975E-1,2.762908697E0,9.188945770E0
2.002490234E1,5.506663918E-1,2.758120298E0,9.088389397E0
2.027548218E1,6.081272364E-1,2.798821688E0,9.014169693E0
2.052603149E1,5.626373887E-1,2.822763920E0,9.267954826E0
2.077645874E1,5.123591423E-1,2.774879694E0,9.157821655E0
2.102691650E1,5.674257874E-1,2.729389906E0,9.325415611E0
2.127728272E1,6.057330370E-1,2.760514498E0,9.112331390E0
2.152789307E1,6.464344859E-1,2.808398485E0,9.255983353E0
2.177828980E1,5.841852427E-1,2.741360903E0,9.071630478E0
2.202871704E1,5.458779931E-1,2.767697096E0,9.169792175E0
2.227920532E1,6.177040339E-1,2.691082716E0,9.133879662E0
2.252978516E1,5.147533417E-1,2.638410330E0,9.131484985E0
2.278018188E1,4.405331016E-1,2.499546528E0,9.251194954E0
2.303073120E1,4.668693244E-1,2.545036316E0,9.308655739E0
2.328121948E1,3.974374831E-1,2.489969730E0,9.253589630E0
2.353164673E1,3.734954596E-1,2.513911724E0,9.318233490E0
2.378216553E1,3.687070608E-1,2.466027737E0,9.320627213E0
2.403277588E1,4.141969085E-1,2.509123325E0,9.493009567E0
2.428317261E1,5.219359994E-1,2.559401512E0,9.272743225E0
2.453369141E1,4.285621047E-1,2.561795712E0,9.105149269E0
2.478445435E1,5.147533417E-1,2.559401512E0,9.366117477E0
2.503485107E1,5.075707436E-1,2.523488522E0,9.208099365E0
2.528543091E1,4.118026793E-1,2.516305923E0,8.980650902E0
2.553594971E1,6.105214357E-1,2.530671120E0,9.519346237E0
2.578640747E1,6.033388376E-1,2.461239338E0,9.191340446E0
2.603689575E1,3.734954596E-1,2.284068346E0,9.330204010E0
2.628723145E1,4.309563041E-1,2.305616140E0,9.229647636E0
2.653787232E1,4.860229492E-1,2.327163935E0,9.153033257E0
2.678836060E1,3.806780577E-1,2.257732153E0,9.323021889E0
2.703887940E1,3.591302633E-1,2.315192938E0,9.390059471E0
2.728924561E1,3.806780577E-1,2.375048161E0,9.528923035E0
2.753988648E1,4.668693244E-1,2.341529369E0,9.351752281E0
2.779028320E1,4.932055473E-1,2.360682964E0,9.270348549E0
2.804077148E1,3.399766386E-1,2.358288765E0,9.265560150E0
2.829107666E1,5.003881454E-1,2.401384354E0,9.193734169E0
2.854162598E1,4.453215301E-1,2.367865562E0,9.346963882E0
2.879205322E1,2.705447972E-1,2.298433542E0,9.344569206E0
2.904275513E1,4.644751251E-1,2.425326347E0,9.220070839E0
2.929315186E1,4.213795066E-1,2.401384354E0,9.318233490E0
2.954351807E1,3.136404157E-1,2.339135170E0,9.342175484E0
2.979394531E1,4.333505034E-1,2.387019157E0,9.344569206E0
3.004425049E1,3.591302633E-1,2.372653961E0,9.361329079E0
3.029461670E1,4.094084799E-1,2.425326347E0,9.397241592E0
3.054516602E1,3.926490843E-1,2.482787132E0,9.255983353E0
3.079577637E1,4.333505034E-1,2.482787132E0,9.121908188E0
3.104626465E1,3.471592367E-1,2.408566952E0,9.279925346E0
3.129675293E1,3.639186621E-1,2.410961151E0,9.308655739E0
3.154733276E1,3.878606856E-1,2.425326347E0,9.270348549E0
3.179797363E1,3.950432837E-1,2.413355350E0,9.356540680E0
3.204864502E1,4.333505034E-1,2.475604534E0,9.315838814E0
3.229913330E1,4.860229492E-1,2.456450939E0,9.397241592E0
3.254943848E1,4.094084799E-1,2.425326347E0,9.394847870E0
3.279989624E1,3.854664862E-1,2.420537949E0,9.337387085E0
3.305026245E1,4.836287498E-1,2.501940727E0,9.284713745E0
3.330072022E1,4.884171486E-1,2.461239338E0,9.346963882E0
3.355133057E1,4.189853072E-1,2.432508945E0,9.330204010E0
3.380181885E1,4.620809257E-1,2.461239338E0,9.375694275E0
3.405221558E1,5.243301988E-1,2.449268341E0,9.315838814E0
3.430267334E1,4.692635238E-1,2.401384354E0,9.303867340E0
3.455325317E1,4.453215301E-1,2.396595955E0,9.244012833E0
3.480392456E1,3.375824392E-1,2.334346771E0,9.323021889E0
3.505435181E1,4.405331016E-1,2.410961151E0,9.270348549E0
3.530462647E1,4.620809257E-1,2.420537949E0,9.370905876E0
3.555520630E1,4.094084799E-1,2.425326347E0,9.200917244E0
3.580569458E1,4.046200812E-1,2.466027737E0,9.423578262E0
3.605603103E1,4.046200812E-1,2.487575531E0,9.284713745E0
3.630633621E1,4.525041282E-1,2.501940727E0,9.330204010E0
3.655685501E1,3.950432837E-1,2.446874142E0,9.275136948E0
3.680728225E1,3.974374831E-1,2.394201756E0,9.318233490E0
3.705786209E1,3.519476354E-1,2.410961151E0,9.107542992E0
3.730816726E1,5.698199868E-1,2.485181332E0,8.956708908E0
3.755859451E1,3.615244627E-1,2.432508945E0,8.937555313E0
3.780920486E1,3.758896589E-1,2.425326347E0,9.169792175E0
3.805969314E1,4.357447028E-1,2.449268341E0,9.315838814E0
3.831015090E1,3.854664862E-1,2.449268341E0,9.375694275E0
3.856066970E1,3.974374831E-1,2.470816135E0,9.299078941E0
3.881109695E1,4.596867263E-1,2.511517525E0,9.308655739E0
3.906170730E1,4.884171486E-1,2.509123325E0,9.212887764E0
3.931234817E1,3.806780577E-1,2.391807556E0,9.452308655E0
3.956289749E1,5.650315881E-1,2.521094322E0,9.062053680E0
3.981332473E1,4.836287498E-1,2.458845139E0,9.193734169E0
4.006384353E1,3.687070608E-1,2.422932148E0,9.227252960E0
4.031430130E1,4.022258818E-1,2.375048161E0,9.516951561E0
4.056478958E1,4.261679053E-1,2.413355350E0,9.234436035E0
4.081546096E1,3.519476354E-1,2.334346771E0,9.308655739E0
4.106601028E1,3.663128614E-1,2.382230759E0,9.301473618E0
4.131662063E1,3.519476354E-1,2.394201756E0,9.342175484E0
4.156716995E1,4.094084799E-1,2.394201756E0,9.318233490E0
4.181753616E1,4.381389022E-1,2.384624958E0,9.263166428E0
4.206802444E1,3.878606856E-1,2.379836559E0,9.294290543E0
4.231839065E1,4.261679053E-1,2.396595955E0,9.251194954E0
4.256893997E1,3.806780577E-1,2.398990154E0,9.279925346E0
4.281951980E1,3.734954596E-1,2.387019157E0,9.246406555E0
4.307019119E1,4.094084799E-1,2.442085743E0,9.327810287E0
4.332061843E1,4.596867263E-1,2.444479942E0,9.296685219E0
4.357104568E1,4.309563041E-1,2.420537949E0,9.306262016E0
4.382141189E1,4.333505034E-1,2.430114746E0,9.227252960E0
4.407183914E1,4.429273009E-1,2.437297344E0,9.334992409E0
4.432223587E1,4.979939461E-1,2.458845139E0,9.260771751E0
4.457260208E1,4.237737060E-1,2.401384354E0,9.287108421E0
4.482287674E1,3.854664862E-1,2.372653961E0,9.361329079E0
4.507342605E1,3.447650373E-1,2.322375536E0,9.449913979E0
4.532400589E1,4.309563041E-1,2.367865562E0,9.394847870E0
4.557428054E1,4.596867263E-1,2.418143749E0,9.251194954E0
4.582479934E1,4.548983276E-1,2.442085743E0,9.330204010E0
4.607540969E1,4.165911078E-1,2.377442360E0,9.339780807E0
4.632589798E1,4.692635238E-1,2.425326347E0,9.208099365E0
4.657644729E1,4.572925270E-1,2.415749550E0,9.191340446E0
4.682690506E1,4.596867263E-1,2.391807556E0,9.306262016E0
4.707745437E1,4.453215301E-1,2.396595955E0,9.253589630E0
4.732791214E1,5.554547906E-1,2.487575531E0,9.066842079E0
4.757852249E1,4.740519226E-1,2.403778553E0,9.186552048E0
4.782904129E1,4.094084799E-1,2.387019157E0,9.291896820E0
4.807943801E1,3.687070608E-1,2.387019157E0,9.299078941E0
4.832989578E1,4.812345505E-1,2.398990154E0,9.368511200E0
4.858038406E1,5.267243981E-1,2.489969730E0,9.318233490E0
4.883065872E1,5.386953950E-1,2.446874142E0,9.430760384E0
4.908114700E1,2.082955539E-1,2.319981337E0,9.181763649E0
4.933172683E1,5.123591423E-1,2.418143749E0,9.224859238E0
4.958261184E1,6.584054828E-1,2.518700123E0,9.411606789E0
4.983319168E1,4.668693244E-1,2.497152328E0,9.193734169E0
5.008367996E1,5.123591423E-1,2.449268341E0,9.184157372E0
5.033425979E1,4.596867263E-1,2.375048161E0,9.294290543E0
5.058471756E1,4.118026793E-1,2.300827742E0,9.414001465E0
5.083517532E1,4.429273009E-1,2.387019157E0,9.241618156E0
5.108563308E1,4.357447028E-1,2.377442360E0,9.358934402E0
5.133612136E1,4.046200812E-1,2.370259762E0,9.414001465E0
5.158673172E1,3.950432837E-1,2.365471363E0,9.366117477E0
5.183728103E1,4.357447028E-1,2.403778553E0,9.301473618E0
5.208773880E1,4.740519226E-1,2.432508945E0,9.354146004E0
5.233807449E1,4.525041282E-1,2.473210335E0,9.301473618E0
5.258865432E1,4.692635238E-1,2.576161146E0,9.028534889E0
5.283908157E1,4.453215301E-1,2.499546528E0,9.232041359E0
5.308969192E1,4.788403511E-1,2.499546528E0,9.265560150E0
5.334030227E1,5.602431893E-1,2.576161146E0,9.121908188E0
5.359085159E1,4.860229492E-1,2.542642117E0,9.136273384E0
5.384143142E1,4.836287498E-1,2.504334927E0,9.311050415E0
5.409213333E1,5.003881454E-1,2.559401512E0,9.275136948E0
5.434265213E1,5.770025849E-1,2.626439333E0,9.133879662E0
5.459323196E1,5.626373887E-1,2.628833532E0,9.301473618E0
5.484356765E1,5.363011956E-1,2.590526342E0,9.313444138E0
5.509399490E1,5.051765442E-1,2.588132143E0,9.368511200E0
5.534448318E1,4.405331016E-1,2.516305923E0,9.442731857E0
5.559515457E1,6.033388376E-1,2.619256735E0,9.133879662E0
5.584555130E1,5.865794420E-1,2.616862535E0,9.239224434E0
5.609613113E1,5.171475410E-1,2.564189911E0,9.447520256E0
5.634655838E1,4.501099288E-1,2.542642117E0,9.263166428E0
5.659707718E1,5.722141862E-1,2.628833532E0,9.018958092E0
5.684756546E1,4.213795066E-1,2.559401512E0,9.402029991E0
5.709820633E1,3.998316824E-1,2.475604534E0,9.363722801E0
5.734863357E1,4.501099288E-1,2.509123325E0,9.279925346E0
5.759921340E1,3.711012602E-1,2.509123325E0,9.330204010E0
5.784964065E1,4.501099288E-1,2.499546528E0,9.200917244E0
5.810006790E1,4.357447028E-1,2.537853718E0,9.373299599E0
5.835049514E1,4.357447028E-1,2.564189911E0,9.153033257E0
5.860107498E1,5.267243981E-1,2.667140722E0,9.239224434E0
5.885153274E1,4.189853072E-1,2.626439333E0,9.325415611E0
5.910199050E1,4.836287498E-1,2.643198729E0,9.349357605E0
5.935235672E1,4.333505034E-1,2.647987127E0,9.267954826E0
5.960293655E1,4.596867263E-1,2.655169725E0,9.234436035E0
5.985348587E1,4.716577232E-1,2.667140722E0,9.315838814E0
6.010406570E1,5.339069963E-1,2.726995707E0,8.995016098E0
6.035461502E1,5.650315881E-1,2.746149302E0,9.241618156E0
6.060507278E1,5.195417404E-1,2.722207308E0,9.162610054E0
6.085565261E1,4.525041282E-1,2.676717520E0,9.205705643E0
6.110617141E1,5.219359994E-1,2.722207308E0,9.114726067E0
6.135659866E1,5.219359994E-1,2.719813108E0,9.138668060E0
6.160730056E1,4.046200812E-1,2.688688517E0,9.291896820E0
6.185775833E1,5.123591423E-1,2.681505919E0,9.174580574E0
6.210818557E1,4.764461517E-1,2.760514498E0,9.251194954E0
6.235861282E1,4.955997467E-1,2.705447912E0,9.267954826E0
6.260916214E1,4.740519226E-1,2.707842112E0,9.378087997E0
6.285968093E1,4.788403511E-1,2.729389906E0,9.129091263E0
6.311004714E1,4.788403511E-1,2.748543501E0,9.165003777E0
6.336053543E1,4.860229492E-1,2.738966703E0,9.287108421E0
6.361114578E1,4.812345505E-1,2.674323320E0,9.248801231E0
6.386160354E1,3.447650373E-1,2.619256735E0,9.244012833E0
6.411203079E1,3.375824392E-1,2.561795712E0,9.349357605E0
6.436248855E1,3.854664862E-1,2.580949545E0,9.339780807E0
6.461297683E1,3.758896589E-1,2.549824715E0,9.136273384E0
6.486358718E1,4.165911078E-1,2.595314741E0,9.301473618E0
6.511395340E1,4.357447028E-1,2.636016130E0,9.229647636E0
6.536447219E1,4.501099288E-1,2.626439333E0,9.272743225E0
6.561508255E1,4.094084799E-1,2.521094322E0,9.299078941E0
6.586535720E1,3.974374831E-1,2.410961151E0,9.153033257E0
6.611596756E1,5.339069963E-1,2.492363930E0,9.397241592E0
6.636648635E1,4.477157295E-1,2.571372509E0,9.136273384E0
6.661706619E1,5.123591423E-1,2.583343744E0,9.284713745E0
6.686748826E1,1.891419291E-1,2.693476915E0,9.267954826E0
6.711806809E1,5.458779931E-1,2.935291290E0,8.777143478E0
6.736873948E1,6.607996821E-1,2.894589901E0,9.150638580E0
6.761938035E1,9.337386489E-1,2.537853718E0,8.762778282E0
6.786992966E1,4.309563041E-1,2.820369720E0,8.889671326E0
6.812041794E1,1.180341482E0,2.480392933E0,9.595960617E0
6.837087571E1,5.123591423E-1,2.602497339E0,9.742006302E0
6.862139451E1,2.513911724E-1,2.458845139E0,8.590395927E0
6.887173020E1,4.477157295E-1,3.339911461E0,8.832210541E0
6.912215745E1,-6.919242740E-1,2.279279947E0,8.628703117E0
6.937243210E1,5.817909837E-1,3.608062029E0,8.808267593E0
6.962282883E1,5.147533417E-1,3.239354849E0,9.184157372E0
6.987350022E1,-9.576806799E-3,3.196259260E0,8.925583839E0
7.012395798E1,3.088520169E-1,3.114856482E0,8.827422142E0
7.037447678E1,3.687070608E-1,3.112462282E0,9.272743225E0
7.062490403E1,4.812345505E-1,3.093308687E0,9.107542992E0
7.087533128E1,5.434837937E-1,2.968810081E0,9.555258751E0
7.112588059E1,4.501099288E-1,2.734178305E0,8.971074104E0
7.137621628E1,1.604115069E-1,2.549824715E0,9.550470352E0
7.162673508E1,6.560112834E-1,2.877830505E0,9.339780807E0
7.187704026E1,4.477157295E-1,2.868253708E0,9.485827446E0
7.212737595E1,1.268926859E-1,2.492363930E0,9.006986618E0
7.237795579E1,3.016694188E-1,2.880224705E0,9.342175484E0
7.262856614E1,6.081272364E-1,2.729389906E0,9.327810287E0
7.287896287E1,4.070142806E-1,2.789244890E0,9.291896820E0
7.312942063E1,6.943184733E-1,2.789244890E0,9.148244858E0
7.337981736E1,6.177040339E-1,2.681505919E0,9.394847870E0
7.363039719E1,4.046200812E-1,2.679111719E0,9.224859238E0
7.388070237E1,5.291185975E-1,2.705447912E0,9.234436035E0
7.413131272E1,3.543418646E-1,2.585737944E0,9.327810287E0
7.438170945E1,5.530605912E-1,2.726995707E0,9.181763649E0
7.463241135E1,4.932055473E-1,2.650381327E0,9.378087997E0
7.488280808E1,5.913678408E-1,2.624045134E0,9.356540680E0
7.513338792E1,4.453215301E-1,2.647987127E0,9.200917244E0
7.538381516E1,5.865794420E-1,2.753331900E0,9.150638580E0
7.563427293E1,4.453215301E-1,2.729389906E0,9.095572472E0
7.588494431E1,4.548983276E-1,2.640804529E0,9.500192642E0
7.613528001E1,4.908113480E-1,2.717418909E0,9.138668060E0
7.638576829E1,4.429273009E-1,2.592920542E0,9.090784073E0
7.663604294E1,4.525041282E-1,2.513911724E0,9.289502144E0
7.688640916E1,5.650315881E-1,2.530671120E0,9.397241592E0
7.713692796E1,5.243301988E-1,2.468421936E0,9.473855972E0
7.738747727E1,4.788403511E-1,2.521094322E0,9.478644371E0
7.763811814E1,3.375824392E-1,2.303221941E0,9.294290543E0
7.788869797E1,5.363011956E-1,2.308010340E0,9.248801231E0
7.813921677E1,5.315127969E-1,2.317587137E0,9.493009567E0
7.838970505E1,7.876923680E-1,2.451662540E0,9.059659004E0
7.864010178E1,4.740519226E-1,2.238578558E0,9.078812599E0
7.889077317E1,6.153098345E-1,2.387019157E0,9.258378029E0
7.914113938E1,8.738836050E-1,2.413355350E0,9.325415611E0
7.939141404E1,6.392518282E-1,2.382230759E0,9.488221169E0
7.964193284E1,5.913678408E-1,2.262520552E0,9.382876396E0
7.989248215E1,5.865794420E-1,2.334346771E0,9.375694275E0
8.014306199E1,6.009446383E-1,2.274491549E0,9.471462250E0
8.039364182E1,5.195417404E-1,2.255337954E0,9.502586365E0
8.064409959E1,5.027823448E-1,2.264914751E0,9.385271072E0
8.089461838E1,5.746083856E-1,2.305616140E0,9.251194954E0
8.114516770E1,6.033388376E-1,2.293645144E0,9.358934402E0
8.139565598E1,6.200982332E-1,2.329558372E0,9.370905876E0
8.164623582E1,4.740519226E-1,2.293645144E0,9.224859238E0
8.189660203E1,4.884171486E-1,2.183511972E0,9.363722801E0
8.214712083E1,6.200982332E-1,2.336740971E0,9.375694275E0
8.239767014E1,5.410895944E-1,2.288856745E0,9.193734169E0
8.264821946E1,5.770025849E-1,2.331952572E0,9.232041359E0
8.289858567E1,5.291185975E-1,2.305616140E0,9.279925346E0
8.314898240E1,4.836287498E-1,2.231395960E0,9.282320023E0
8.339944016E1,5.099649429E-1,2.257732153E0,9.375694275E0
8.365008103E1,5.434837937E-1,2.286462545E0,9.239224434E0
8.390066086E1,5.722141862E-1,2.317587137E0,9.191340446E0
8.415108811E1,5.363011956E-1,2.279279947E0,9.363722801E0
8.440169846E1,6.847416759E-1,2.293645144E0,9.514557838E0
8.465218674E1,4.453215301E-1,2.231395960E0,9.294290543E0
8.490270554E1,7.733271718E-1,2.621650934E0,9.466673851E0
8.515307175E1,4.908113480E-1,2.439691544E0,8.774748802E0
8.540352952E1,5.985504389E-1,2.619256735E0,9.361329079E0
8.565417039E1,8.236053586E-1,2.628833532E0,9.241618156E0
8.590453660E1,5.075707436E-1,2.580949545E0,9.203310966E0
8.615514695E1,7.326257229E-1,2.746149302E0,9.263166428E0
8.640551316E1,6.727706790E-1,2.626439333E0,9.332598686E0
8.665609299E1,5.482721925E-1,2.561795712E0,9.277531624E0
8.690658128E1,6.272808313E-1,2.631227732E0,8.980650902E0
8.715722214E1,5.123591423E-1,2.585737944E0,9.299078941E0
8.740774094E1,4.932055473E-1,2.664746523E0,9.217676163E0
8.765810715E1,5.722141862E-1,2.724601507E0,9.203310966E0
8.790844285E1,5.889736414E-1,2.681505919E0,9.284713745E0
8.815905320E1,4.932055473E-1,2.552218914E0,9.275136948E0
8.840951096E1,5.386953950E-1,2.561795712E0,9.229647636E0
8.866006028E1,4.908113480E-1,2.573766708E0,9.179368973E0
8.891079270E1,5.650315881E-1,2.545036316E0,9.394847870E0
8.916140305E1,5.506663918E-1,2.590526342E0,9.255983353E0
8.941201340E1,5.770025849E-1,2.590526342E0,9.277531624E0
8.966250169E1,5.746083856E-1,2.626439333E0,9.215282440E0
8.991302048E1,5.650315881E-1,2.568978310E0,9.253589630E0
9.016338670E1,5.003881454E-1,2.595314741E0,9.327810287E0
9.041399705E1,4.716577232E-1,2.590526342E0,9.318233490E0
9.066442429E1,5.506663918E-1,2.609679937E0,9.184157372E0
9.091488206E1,5.363011956E-1,2.578555346E0,9.356540680E0
9.116530930E1,4.453215301E-1,2.614468336E0,9.279925346E0
9.141570603E1,5.530605912E-1,2.652775526E0,9.109937668E0
9.166637742E1,5.243301988E-1,2.604891539E0,9.160215378E0
9.191671311E1,5.578489900E-1,2.571372509E0,9.332598686E0
9.216738450E1,4.955997467E-1,2.528276920E0,9.253589630E0
9.241790330E1,4.261679053E-1,2.530671120E0,9.095572472E0
9.266863572E1,6.129156351E-1,2.647987127E0,9.186552048E0
9.291915452E1,5.219359994E-1,2.592920542E0,9.363722801E0
9.316973435E1,4.381389022E-1,2.557007313E0,9.368511200E0
9.342034470E1,4.740519226E-1,2.588132143E0,9.172186852E0
9.367080247E1,4.716577232E-1,2.624045134E0,9.169792175E0
9.392122971E1,5.793967843E-1,2.647987127E0,9.351752281E0
9.417193162E1,4.884171486E-1,2.657563925E0,9.229647636E0
9.442241990E1,4.429273009E-1,2.604891539E0,9.126696587E0
9.467306077E1,4.237737060E-1,2.576161146E0,9.248801231E0
9.492364060E1,4.596867263E-1,2.580949545E0,9.143456459E0
9.517428147E1,4.309563041E-1,2.557007313E0,9.133879662E0
9.542461716E1,4.644751251E-1,2.590526342E0,9.165003777E0
9.567507493E1,5.913678408E-1,2.626439333E0,9.287108421E0
9.592538010E1,5.339069963E-1,2.621650934E0,9.294290543E0
9.617608201E1,4.477157295E-1,2.573766708E0,9.301473618E0
9.642660081E1,4.764461517E-1,2.655169725E0,9.200917244E0
9.667727219E1,4.692635238E-1,2.616862535E0,9.260771751E0
9.692760789E1,4.812345505E-1,2.636016130E0,9.263166428E0
9.717815720E1,5.003881454E-1,2.631227732E0,9.308655739E0
9.742864548E1,4.740519226E-1,2.647987127E0,9.172186852E0
9.767910060E1,4.381389022E-1,2.628833532E0,9.229647636E0
9.792958888E1,4.165911078E-1,2.583343744E0,9.176975250E0
9.818016871E1,4.094084799E-1,2.592920542E0,9.263166428E0
9.843062648E1,4.716577232E-1,2.638410330E0,9.203310966E0
9.868114528E1,4.309563041E-1,2.590526342E0,9.337387085E0
9.893184718E1,3.687070608E-1,2.554613113E0,9.294290543E0
9.918236598E1,3.950432837E-1,2.564189911E0,9.423578262E0
9.943294581E1,4.381389022E-1,2.535459518E0,9.325415611E0
9.968349513E1,3.519476354E-1,2.477998734E0,9.258378029E0
9.993389186E1,3.758896589E-1,2.561795712E0,9.421183586E0
1.001844717E2,4.118026793E-1,2.612074137E0,9.097966194E0
1.004348074E2,3.615244627E-1,2.559401512E0,9.196128845E0
1.006853567E2,3.926490843E-1,2.571372509E0,9.191340446E0
1.009359365E2,3.830722570E-1,2.614468336E0,9.018958092E0
1.011865164E2,3.734954596E-1,2.621650934E0,9.299078941E0
1.014372183E2,3.327940404E-1,2.636016130E0,9.224859238E0
1.016876760E2,3.303998411E-1,2.602497339E0,9.320627213E0
1.019379202E2,3.519476354E-1,2.588132143E0,9.344569206E0
1.021885610E2,3.639186621E-1,2.600103140E0,9.200917244E0
1.024391104E2,3.495534360E-1,2.552218914E0,9.289502144E0
1.026895376E2,3.567360640E-1,2.559401512E0,9.282320023E0
1.029400259E2,3.327940404E-1,2.530671120E0,9.323021889E0
1.031905142E2,4.596867263E-1,2.600103140E0,9.188945770E0
1.034409414E2,3.974374831E-1,2.578555346E0,9.236829758E0
1.036915213E2,3.950432837E-1,2.600103140E0,9.241618156E0
1.039419180E2,3.615244627E-1,2.592920542E0,9.275136948E0
1.041925894E2,4.237737060E-1,2.626439333E0,9.167398453E0
1.044431387E2,3.734954596E-1,2.576161146E0,9.275136948E0
1.046937185E2,4.046200812E-1,2.545036316E0,9.330204010E0
1.049441458E2,3.543418646E-1,2.528276920E0,9.176975250E0
1.051946646E2,4.357447028E-1,2.602497339E0,9.255983353E0
1.054452749E2,2.992752194E-1,2.528276920E0,9.165003777E0
1.056956716E2,3.567360640E-1,2.595314741E0,9.272743225E0
1.059462820E2,3.663128614E-1,2.566584110E0,9.109937668E0
1.061968618E2,3.136404157E-1,2.463633537E0,9.272743225E0
1.064474111E2,2.729389966E-1,2.458845139E0,9.349357605E0
1.066978384E2,3.399766386E-1,2.475604534E0,9.234436035E0
1.069482962E2,4.501099288E-1,2.487575531E0,9.071630478E0
1.071987539E2,4.955997467E-1,2.602497339E0,9.344569206E0
1.074490286E2,2.920926213E-1,2.442085743E0,9.244012833E0
1.076996084E2,3.280056417E-1,2.413355350E0,9.488221169E0
1.079500051E2,7.182604820E-2,2.298433542E0,9.244012833E0
1.082003103E2,2.992752194E-1,2.509123325E0,9.373299599E0
1.084508901E2,3.208230138E-1,2.487575531E0,9.050082207E0
1.087013174E2,1.460463107E-1,2.437297344E0,8.887276649E0
1.089518362E2,4.429273009E-1,2.480392933E0,9.308655739E0
1.092023245E2,6.703764945E-2,2.420537949E0,9.294290543E0
1.094526907E2,2.442085743E-1,2.410961151E0,9.062053680E0
1.097032095E2,2.035071403E-1,2.468421936E0,9.421183586E0
1.099536672E2,3.471592367E-1,2.590526342E0,9.236829758E0
1.102042471E2,1.675941199E-1,2.446874142E0,9.145850182E0
1.104546133E2,2.274491638E-1,2.506729126E0,9.301473618E0
1.107050405E2,2.082955539E-1,2.439691544E0,9.404424667E0
1.109554678E2,2.896983922E-1,2.494758129E0,9.155426979E0
1.112060171E2,2.609679997E-1,2.537853718E0,9.239224434E0
1.114566275E2,2.513911724E-1,2.466027737E0,9.323021889E0
1.117071463E2,2.178723514E-1,2.454056740E0,9.318233490E0
1.119575125E2,3.447650373E-1,2.580949545E0,9.172186852E0
1.122079092E2,2.657563984E-1,2.494758129E0,9.270348549E0
1.124583670E2,2.226607651E-1,2.432508945E0,9.301473618E0
1.127091299E2,2.801215947E-1,2.513911724E0,9.339780807E0
1.129594351E2,3.375824392E-1,2.477998734E0,9.100360870E0
1.132101065E2,2.729389966E-1,2.492363930E0,9.258378029E0
1.134605337E2,2.992752194E-1,2.497152328E0,9.368511200E0
1.137111746E2,2.705447972E-1,2.489969730E0,9.385271072E0
1.139616018E2,2.825157940E-1,2.477998734E0,9.308655739E0
1.142122732E2,2.849099934E-1,2.470816135E0,9.078812599E0
1.144627920E2,3.184288144E-1,2.487575531E0,9.263166428E0
1.147132498E2,3.232172430E-1,2.473210335E0,9.409213066E0
1.149636160E2,2.561795712E-1,2.391807556E0,9.203310966E0
1.152142874E2,2.896983922E-1,2.418143749E0,9.229647636E0
1.154648062E2,2.705447972E-1,2.418143749E0,9.337387085E0
1.157154165E2,2.274491638E-1,2.485181332E0,9.291896820E0
1.159658438E2,2.896983922E-1,2.501940727E0,9.265560150E0
1.162163320E2,2.681505978E-1,2.497152328E0,9.313444138E0
1.164665762E2,2.298433632E-1,2.401384354E0,9.318233490E0
1.167171865E2,1.580173075E-1,2.382230759E0,9.476250648E0
1.169676443E2,3.711012602E-1,2.561795712E0,9.208099365E0
1.172181021E2,2.849099934E-1,2.525882721E0,9.327810287E0
1.174684683E2,2.442085743E-1,2.432508945E0,9.248801231E0
1.177189871E2,2.992752194E-1,2.509123325E0,9.346963882E0
1.179695669E2,2.801215947E-1,2.485181332E0,9.188945770E0
1.182200552E2,2.489969730E-1,2.480392933E0,9.160215378E0
1.184705740E2,2.082955539E-1,2.485181332E0,9.224859238E0
1.187209707E2,1.747767180E-1,2.458845139E0,9.351752281E0
1.189713369E2,2.657563984E-1,2.523488522E0,9.284713745E0
1.192219778E2,3.591302410E-2,2.396595955E0,9.346963882E0
1.194725271E2,8.379705995E-2,2.403778553E0,9.327810287E0
1.197231680E2,1.149216816E-1,2.449268341E0,9.342175484E0
1.199737173E2,1.460463107E-1,2.466027737E0,9.325415611E0
1.202243887E2,2.394201607E-2,2.398990154E0,9.318233490E0
1.204747854E2,3.112462163E-2,2.413355350E0,9.409213066E0
1.207252127E2,4.070143029E-2,2.408566952E0,9.263166428E0
1.209755789E2,6.703764945E-2,2.406172752E0,9.291896820E0
1.212260366E2,8.858546615E-2,2.477998734E0,9.390059471E0
1.214764639E2,6.943184882E-2,2.449268341E0,9.244012833E0
1.217271658E2,1.292868853E-1,2.449268341E0,9.234436035E0
1.219777761E2,1.029506698E-1,2.454056740E0,9.351752281E0
1.222283255E2,1.077390760E-1,2.439691544E0,9.311050415E0
1.224788443E2,2.035071403E-1,2.468421936E0,9.306262016E0
1.227294851E2,2.178723514E-1,2.466027737E0,9.332598686E0
1.229798818E2,2.082955539E-1,2.434903145E0,9.294290543E0
1.232302175E2,2.274491638E-1,2.351106167E0,9.220070839E0
1.234808279E2,3.232172430E-1,2.466027737E0,9.291896820E0
1.237313467E2,3.303998411E-1,2.454056740E0,9.279925346E0
1.239818045E2,3.711012602E-1,2.528276920E0,9.260771751E0
1.242323843E2,4.644751251E-1,2.681505919E0,9.244012833E0
1.244828421E2,3.663128614E-1,2.679111719E0,9.141061783E0
1.247334524E2,3.711012602E-1,2.693476915E0,9.246406555E0
1.249838797E2,3.854664862E-1,2.647987127E0,9.277531624E0
1.252345205E2,3.016694188E-1,2.614468336E0,9.265560150E0
1.254851004E2,3.040636182E-1,2.636016130E0,9.126696587E0
1.257357717E2,2.777273953E-1,2.604891539E0,9.308655739E0
1.259862905E2,3.016694188E-1,2.592920542E0,9.160215378E0
1.262369009E2,2.274491638E-1,2.588132143E0,9.337387085E0
1.264873892E2,3.040636182E-1,2.624045134E0,9.184157372E0
1.267379690E2,3.184288144E-1,2.643198729E0,9.342175484E0
1.269883047E2,2.633621991E-1,2.616862535E0,9.176975250E0
1.272388540E2,3.016694188E-1,2.604891539E0,9.263166428E0
1.274892202E2,2.394201756E-1,2.602497339E0,9.241618156E0
1.277395864E2,2.849099934E-1,2.561795712E0,9.220070839E0
1.279899832E2,3.280056417E-1,2.604891539E0,9.354146004E0
1.282405275E2,3.806780577E-1,2.643198729E0,9.153033257E0
1.284909548E2,2.944868207E-1,2.576161146E0,9.215282440E0
1.287416567E2,3.758896589E-1,2.655169725E0,9.054870605E0
1.289921145E2,3.423708379E-1,2.604891539E0,9.265560150E0
1.292426638E2,3.974374831E-1,2.676717520E0,9.188945770E0
1.294929384E2,3.447650373E-1,2.624045134E0,9.241618156E0
1.297433962E2,3.351882398E-1,2.595314741E0,9.471462250E0
1.299939760E2,3.926490843E-1,2.600103140E0,9.193734169E0
1.302446169E2,3.567360640E-1,2.657563925E0,9.224859238E0
1.304949831E2,4.118026793E-1,2.621650934E0,9.100360870E0
1.307454104E2,3.878606856E-1,2.609679937E0,9.284713745E0
1.309957766E2,3.471592367E-1,2.636016130E0,9.277531624E0
1.312463259E2,3.351882398E-1,2.614468336E0,9.301473618E0
1.314968752E2,4.094084799E-1,2.671929121E0,9.320627213E0
1.317474550E2,3.351882398E-1,2.607285738E0,9.124302864E0
1.319979433E2,3.351882398E-1,2.557007313E0,9.205705643E0
1.322485232E2,3.519476354E-1,2.614468336E0,9.289502144E0
1.324990725E2,3.184288144E-1,2.609679937E0,9.363722801E0
1.327496523E2,4.333505034E-1,2.664746523E0,9.081207275E0
1.330000185E2,3.567360640E-1,2.674323320E0,9.404424667E0
1.332505983E2,2.633621991E-1,2.628833532E0,9.409213066E0
1.335012087E2,3.232172430E-1,2.607285738E0,9.258378029E0
1.337517275E2,3.447650373E-1,2.602497339E0,9.313444138E0
1.340023073E2,3.806780577E-1,2.683900118E0,9.186552048E0
1.342528261E2,2.705447972E-1,2.583343744E0,9.200917244E0
1.345032534E2,2.585737705E-1,2.590526342E0,9.133879662E0
1.347537417E2,3.351882398E-1,2.638410330E0,9.282320023E0
1.350042605E2,3.687070608E-1,2.724601507E0,9.026140213E0
1.352547487E2,2.777273953E-1,2.645592928E0,9.227252960E0
1.355052675E2,2.873041928E-1,2.707842112E0,9.215282440E0
1.357557253E2,3.327940404E-1,2.717418909E0,9.227252960E0
1.360062746E2,4.285621047E-1,2.789244890E0,9.212887764E0
1.362566408E2,1.388636976E-1,2.595314741E0,9.121908188E0
1.365070986E2,2.346317619E-1,2.580949545E0,9.337387085E0
1.367576174E2,2.011129409E-1,2.554613113E0,9.217676163E0
1.370079531E2,2.466027737E-1,2.626439333E0,9.248801231E0
1.372585329E2,3.950432837E-1,2.614468336E0,9.143456459E0
1.375088686E2,1.340752989E-1,2.552218914E0,9.229647636E0
1.377593569E2,2.322375625E-1,2.533065319E0,9.411606789E0
1.380096926E2,1.604115069E-1,2.533065319E0,9.227252960E0
1.382601198E2,1.867477298E-1,2.533065319E0,9.251194954E0
1.385105471E2,3.399766386E-1,2.583343744E0,9.270348549E0
1.387610964E2,2.609679997E-1,2.561795712E0,9.157821655E0
1.390114931E2,2.896983922E-1,2.585737944E0,9.169792175E0
1.392620119E2,2.729389966E-1,2.619256735E0,9.131484985E0
1.395125612E2,3.447650373E-1,2.557007313E0,9.227252960E0
1.397630190E2,3.040636182E-1,2.624045134E0,9.224859238E0
1.400135683E2,2.896983922E-1,2.592920542E0,9.188945770E0
1.402642092E2,3.615244627E-1,2.647987127E0,9.289502144E0
1.405147585E2,3.136404157E-1,2.595314741E0,9.215282440E0
1.407653078E2,2.011129409E-1,2.542642117E0,9.303867340E0
1.410157656E2,2.777273953E-1,2.614468336E0,9.203310966E0
1.412662233E2,1.628057212E-1,2.559401512E0,9.129091263E0
1.415166201E2,2.202665508E-1,2.545036316E0,9.267954826E0
1.417671084E2,2.920926213E-1,2.580949545E0,9.373299599E0
1.420176577E2,1.867477298E-1,2.549824715E0,9.306262016E0
1.422682070E2,3.136404157E-1,2.571372509E0,9.186552048E0
1.425187258E2,2.561795712E-1,2.604891539E0,9.133879662E0
1.427693056E2,3.040636182E-1,2.621650934E0,9.279925346E0
1.430198549E2,2.226607651E-1,2.528276920E0,9.306262016E0
1.432704958E2,2.777273953E-1,2.633621931E0,9.430760384E0
1.435209231E2,4.022258818E-1,2.734178305E0,9.160215378E0
1.437715334E2,3.232172430E-1,2.688688517E0,9.112331390E0
1.440219607E2,3.663128614E-1,2.647987127E0,9.236829758E0
1.442724489E2,4.357447028E-1,2.817975283E0,9.339780807E0
1.445227541E2,4.836287498E-1,2.837129116E0,9.346963882E0
1.447733339E2,3.567360640E-1,2.841917515E0,9.222464561E0
1.450239443E2,5.099649429E-1,3.028665066E0,9.081207275E0
1.452745852E2,4.237737060E-1,2.920926094E0,8.963891029E0
1.455248903E2,5.554547906E-1,2.861071110E0,9.102754593E0
1.457754702E2,3.974374831E-1,2.829946518E0,9.588777542E0
1.460260195E2,3.184288144E-1,2.700659513E0,9.272743225E0
1.462767214E2,1.244984865E-1,2.688688517E0,9.112331390E0
1.465272707E2,2.322375625E-1,2.576161146E0,9.074024200E0
1.467778505E2,2.609679997E-1,2.671929121E0,9.102754593E0
1.470283693E2,1.508347094E-1,2.647987127E0,9.425971985E0
1.472788271E2,1.316810995E-1,2.645592928E0,9.363722801E0
1.475293764E2,2.705447972E-1,2.722207308E0,9.270348549E0
1.477798952E2,1.795651317E-1,2.753331900E0,9.203310966E0
1.480306276E2,3.591302410E-2,2.705447912E0,9.141061783E0
1.482810549E2,1.460463107E-1,2.722207308E0,9.172186852E0
1.485315127E2,1.867477298E-1,2.813186884E0,9.203310966E0
1.487822146E2,1.316810995E-1,2.734178305E0,9.169792175E0
1.490327639E2,9.097966552E-2,2.695871115E0,9.212887764E0
1.492832216E2,2.250549644E-1,2.772485495E0,9.155426979E0
1.495336489E2,2.035071403E-1,2.803610086E0,9.308655739E0
1.497840151E2,1.532289088E-1,2.817975283E0,9.258378029E0
1.500343203E2,2.418143749E-1,2.870647907E0,9.186552048E0
1.502849001E2,1.508347094E-1,2.801215887E0,9.153033257E0
1.505353579E2,1.508347094E-1,2.825158119E0,9.315838814E0
1.507857851E2,7.422025502E-2,2.741360903E0,9.102754593E0
1.510363955E2,1.292868853E-1,2.755726099E0,9.205705643E0
1.512870058E2,1.532289088E-1,2.846705914E0,9.117119789E0
1.515376162E2,2.442085743E-1,2.808398485E0,9.205705643E0
1.517881655E2,1.628057212E-1,2.712630510E0,9.088389397E0
1.520385622E2,1.604115069E-1,2.710236311E0,9.088389397E0
1.522891420E2,2.011129409E-1,2.734178305E0,9.212887764E0
1.525395693E2,2.585737705E-1,2.791639090E0,9.210494041E0
1.527900271E2,2.466027737E-1,2.760514498E0,9.038111687E0
1.530403933E2,2.202665508E-1,2.705447912E0,9.325415611E0
1.532910647E2,1.723825186E-1,2.722207308E0,9.296685219E0
1.535415835E2,1.843535304E-1,2.719813108E0,9.193734169E0
1.537920107E2,1.723825186E-1,2.734178305E0,9.097966194E0
1.540424685E2,1.580173075E-1,2.712630510E0,9.222464561E0
1.542928957E2,1.771709323E-1,2.705447912E0,9.227252960E0
1.545432619E2,1.340752989E-1,2.659958124E0,9.349357605E0
1.547938723E2,1.221042871E-1,2.590526342E0,9.291896820E0
1.550442995E2,2.130839527E-1,2.717418909E0,9.090784073E0
1.552948794E2,2.035071403E-1,2.705447912E0,9.181763649E0
1.555454592E2,1.532289088E-1,2.647987127E0,9.260771751E0
1.557959780E2,1.604115069E-1,2.633621931E0,9.349357605E0
1.560463747E2,2.082955539E-1,2.659958124E0,9.179368973E0
1.562968935E2,2.250549644E-1,2.691082716E0,9.191340446E0
1.565471987E2,1.771709323E-1,2.607285738E0,9.241618156E0
1.567975649E2,1.771709323E-1,2.650381327E0,9.332598686E0
1.570479616E2,1.316810995E-1,2.602497339E0,9.299078941E0
1.572984194E2,2.059013397E-1,2.643198729E0,9.279925346E0
1.575489077E2,2.513911724E-1,2.707842112E0,9.160215378E0
1.577995180E2,1.651999205E-1,2.640804529E0,9.181763649E0
1.580500368E2,8.619125932E-2,2.561795712E0,9.114726067E0
1.583005251E2,1.029506698E-1,2.609679937E0,9.210494041E0
1.585509218E2,2.920926213E-1,2.607285738E0,9.392453194E0
1.588013796E2,4.141969085E-1,2.624045134E0,9.069235802E0
1.590517763E2,3.447650373E-1,2.545036316E0,9.085995674E0
1.593022341E2,3.232172430E-1,2.511517525E0,9.476250648E0
1.595527224E2,-1.436521020E-2,2.327163935E0,9.315838814E0
1.598031191E2,4.740519226E-1,2.487575531E0,9.358934402E0
1.600536379E2,3.830722570E-1,2.489969730E0,9.315838814E0
1.603041567E2,5.291185975E-1,2.523488522E0,9.344569206E0
1.605545534E2,4.812345505E-1,2.571372509E0,9.421183586E0
1.608051943E2,2.657563984E-1,2.501940727E0,9.148244858E0
1.610555165E2,3.591302633E-1,2.513911724E0,9.311050415E0
1.613061269E2,3.639186621E-1,2.477998734E0,9.351752281E0
1.615566762E2,3.208230138E-1,2.391807556E0,9.327810287E0
1.618071645E2,3.998316824E-1,2.513911724E0,9.327810287E0
1.620576833E2,3.471592367E-1,2.552218914E0,9.299078941E0
1.623080495E2,3.280056417E-1,2.525882721E0,9.196128845E0
1.625584767E2,2.226607651E-1,2.451662540E0,9.449913979E0
1.628092092E2,3.471592367E-1,2.466027737E0,9.454702377E0
1.630597890E2,3.136404157E-1,2.482787132E0,9.378087997E0
1.633103078E2,3.615244627E-1,2.492363930E0,9.239224434E0
1.635609487E2,4.046200812E-1,2.480392933E0,9.143456459E0
1.638115590E2,4.141969085E-1,2.506729126E0,9.313444138E0
1.640620473E2,3.830722570E-1,2.470816135E0,9.414001465E0
1.643125661E2,3.734954596E-1,2.473210335E0,9.363722801E0
1.645629628E2,4.932055473E-1,2.528276920E0,9.260771751E0
1.648134816E2,4.477157295E-1,2.576161146E0,9.193734169E0
1.650637563E2,2.825157940E-1,2.444479942E0,9.174580574E0
1.653141225E2,4.118026793E-1,2.516305923E0,9.368511200E0
1.655645497E2,3.663128614E-1,2.557007313E0,9.454702377E0
1.658152516E2,2.873041928E-1,2.451662540E0,9.255983353E0
1.660657704E2,2.896983922E-1,2.504334927E0,9.334992409E0
1.663163503E2,4.285621047E-1,2.559401512E0,9.174580574E0
1.665668691E2,2.633621991E-1,2.437297344E0,9.308655739E0
1.668173574E2,3.998316824E-1,2.509123325E0,9.370905876E0
1.670678456E2,3.711012602E-1,2.542642117E0,9.308655739E0
1.673183644E2,1.604115069E-1,2.454056740E0,9.215282440E0
1.675687306E2,2.992752194E-1,2.528276920E0,9.459490776E0
1.678192800E2,3.687070608E-1,2.501940727E0,9.325415611E0
1.680699513E2,3.734954596E-1,2.509123325E0,9.301473618E0
1.683204396E2,3.232172430E-1,2.451662540E0,9.289502144E0
1.685709279E2,3.543418646E-1,2.523488522E0,9.301473618E0
1.688213552E2,3.806780577E-1,2.576161146E0,9.145850182E0
1.690717214E2,3.902548850E-1,2.528276920E0,9.481039047E0
1.693223622E2,3.327940404E-1,2.516305923E0,9.339780807E0
1.695727895E2,3.471592367E-1,2.516305923E0,9.303867340E0
1.698232472E2,3.064578176E-1,2.451662540E0,9.114726067E0
1.700737660E2,3.782838583E-1,2.588132143E0,9.272743225E0
1.703242543E2,3.687070608E-1,2.545036316E0,9.330204010E0
1.705747426E2,3.974374831E-1,2.559401512E0,9.148244858E0
1.708252614E2,4.141969085E-1,2.619256735E0,9.246406555E0
1.710758412E2,3.782838583E-1,2.592920542E0,9.320627213E0
1.713263600E2,3.830722570E-1,2.612074137E0,9.253589630E0
1.715769399E2,4.261679053E-1,2.645592928E0,9.196128845E0
1.718273976E2,4.333505034E-1,2.636016130E0,9.366117477E0
1.720778554E2,4.189853072E-1,2.645592928E0,9.081207275E0
1.723284047E2,4.046200812E-1,2.647987127E0,8.927978516E0
1.725788625E2,4.333505034E-1,2.662352324E0,9.193734169E0
1.728293202E2,4.932055473E-1,2.669534922E0,9.014169693E0
1.730797170E2,4.046200812E-1,2.655169725E0,9.205705643E0
1.733303273E2,3.663128614E-1,2.671929121E0,9.277531624E0
1.735808156E2,3.208230138E-1,2.571372509E0,9.205705643E0
1.738313039E2,3.303998411E-1,2.609679937E0,9.272743225E0
1.740817922E2,5.003881454E-1,2.647987127E0,9.124302864E0
1.743322194E2,3.734954596E-1,2.624045134E0,9.227252960E0
1.745827687E2,4.165911078E-1,2.638410330E0,9.272743225E0
1.748335011E2,3.543418646E-1,2.612074137E0,9.354146004E0
1.750840199E2,3.256114423E-1,2.557007313E0,9.248801231E0
1.753346608E2,4.357447028E-1,2.624045134E0,9.172186852E0
1.755851186E2,3.711012602E-1,2.588132143E0,9.138668060E0
1.758357594E2,3.830722570E-1,2.573766708E0,9.299078941E0
1.760862172E2,3.687070608E-1,2.588132143E0,9.198522568E0
1.763366750E2,4.237737060E-1,2.602497339E0,9.265560150E0
1.765872243E2,5.027823448E-1,2.607285738E0,9.356540680E0
1.768378346E2,4.285621047E-1,2.583343744E0,9.117119789E0
1.770882619E2,4.788403511E-1,2.612074137E0,9.404424667E0
1.773389028E2,4.118026793E-1,2.559401512E0,9.385271072E0
1.775893300E2,3.854664862E-1,2.628833532E0,9.260771751E0
1.778397573E2,4.022258818E-1,2.585737944E0,9.160215378E0
1.780900319E2,4.429273009E-1,2.609679937E0,9.258378029E0
1.783407948E2,3.399766386E-1,2.621650934E0,9.062053680E0
1.785910695E2,3.854664862E-1,2.602497339E0,9.346963882E0
1.788416188E2,2.777273953E-1,2.523488522E0,9.313444138E0
1.790921071E2,3.543418646E-1,2.573766708E0,9.327810287E0
1.793425344E2,3.280056417E-1,2.566584110E0,9.382876396E0
1.795931447E2,2.753331959E-1,2.542642117E0,9.179368973E0
1.798437551E2,3.136404157E-1,2.545036316E0,9.315838814E0
1.800942128E2,3.519476354E-1,2.624045134E0,9.186552048E0
1.803447927E2,2.896983922E-1,2.540247917E0,9.334992409E0
1.805950063E2,3.040636182E-1,2.564189911E0,9.521739960E0
1.808455861E2,2.968810201E-1,2.497152328E0,9.181763649E0
1.810958303E2,3.256114423E-1,2.542642117E0,9.265560150E0
1.813465016E2,4.165911078E-1,2.597708941E0,9.327810287E0
1.815970204E2,3.160346150E-1,2.511517525E0,9.258378029E0
1.818475698E2,3.567360640E-1,2.545036316E0,9.222464561E0
1.820981191E2,3.591302633E-1,2.542642117E0,9.418789864E0
1.823485768E2,2.992752194E-1,2.528276920E0,9.251194954E0
1.825989736E2,2.920926213E-1,2.492363930E0,9.473855972E0
1.828494618E2,3.136404157E-1,2.592920542E0,9.136273384E0
1.830998891E2,3.280056417E-1,2.535459518E0,9.186552048E0
1.833502553E2,2.561795712E-1,2.494758129E0,9.466673851E0
1.836005300E2,3.998316824E-1,2.590526342E0,9.445125580E0
1.838510488E2,3.902548850E-1,2.533065319E0,9.394847870E0
1.841015981E2,3.878606856E-1,2.525882721E0,9.229647636E0
1.843521779E2,4.812345505E-1,2.616862535E0,9.318233490E0
1.846026662E2,5.291185975E-1,2.664746523E0,9.109937668E0
1.848531240E2,4.932055473E-1,2.621650934E0,9.191340446E0
1.851036733E2,3.591302633E-1,2.525882721E0,9.306262016E0
1.853543141E2,3.663128614E-1,2.609679937E0,9.270348549E0
1.856049550E2,2.992752194E-1,2.535459518E0,9.284713745E0
1.858555043E2,3.543418646E-1,2.554613113E0,9.260771751E0
1.861059316E2,3.878606856E-1,2.583343744E0,9.196128845E0
1.863566640E2,3.902548850E-1,2.607285738E0,9.318233490E0
1.866071218E2,4.644751251E-1,2.638410330E0,9.313444138E0
1.868576406E2,2.681505978E-1,2.578555346E0,9.279925346E0
1.871080678E2,2.753331959E-1,2.545036316E0,9.361329079E0
1.873588002E2,3.112462163E-1,2.528276920E0,9.287108421E0
1.876094106E2,2.896983922E-1,2.576161146E0,9.320627213E0
1.878600209E2,3.567360640E-1,2.624045134E0,9.332598686E0
1.881106313E2,3.758896589E-1,2.607285738E0,9.255983353E0
1.883612721E2,4.046200812E-1,2.621650934E0,9.272743225E0
1.886116384E2,4.572925270E-1,2.722207308E0,9.014169693E0
1.888621266E2,3.351882398E-1,2.633621931E0,9.112331390E0
1.891126454E2,3.351882398E-1,2.626439333E0,9.277531624E0
1.893631642E2,3.160346150E-1,2.655169725E0,9.174580574E0
1.896136220E2,2.226607651E-1,2.631227732E0,9.253589630E0
1.898641713E2,3.447650373E-1,2.698265314E0,9.248801231E0
1.901145680E2,3.663128614E-1,2.683900118E0,9.301473618E0
1.903651784E2,3.256114423E-1,2.667140722E0,9.203310966E0
1.906157277E2,3.447650373E-1,2.643198729E0,9.303867340E0
1.908663075E2,2.968810201E-1,2.636016130E0,9.299078941E0
1.911169179E2,3.615244627E-1,2.662352324E0,9.217676163E0
1.913673146E2,3.615244627E-1,2.628833532E0,9.272743225E0
1.916176198E2,4.357447028E-1,2.698265314E0,9.117119789E0
1.918679217E2,4.333505034E-1,2.710236311E0,9.021351814E0
1.921183795E2,4.596867263E-1,2.717418909E0,9.246406555E0
1.923688067E2,4.357447028E-1,2.693476915E0,9.105149269E0
1.926194171E2,4.094084799E-1,2.695871115E0,9.210494041E0
1.928700275E2,4.309563041E-1,2.693476915E0,9.162610054E0
1.931204547E2,3.830722570E-1,2.633621931E0,9.346963882E0
1.933710956E2,1.460463107E-1,2.619256735E0,9.150638580E0
1.936216754E2,3.280056417E-1,2.712630510E0,9.229647636E0
1.938723468E2,2.825157940E-1,2.650381327E0,9.258378029E0
1.941227740E2,3.639186621E-1,2.650381327E0,9.368511200E0
1.943733844E2,3.902548850E-1,2.712630510E0,9.208099365E0
1.946238727E2,3.471592367E-1,2.707842112E0,9.279925346E0
1.948744525E2,3.687070608E-1,2.671929121E0,9.160215378E0
1.951251544E2,4.429273009E-1,2.698265314E0,9.220070839E0
1.953756122E2,4.716577232E-1,2.770091295E0,9.244012833E0
1.956261615E2,4.812345505E-1,2.746149302E0,9.129091263E0
1.958765277E2,3.232172430E-1,2.636016130E0,9.502586365E0
1.961269855E2,3.543418646E-1,2.679111719E0,9.241618156E0
1.963774432E2,3.519476354E-1,2.688688517E0,9.301473618E0
1.966279620E2,3.854664862E-1,2.681505919E0,9.275136948E0
1.968785724E2,3.974374831E-1,2.703053713E0,9.057265282E0
1.971290912E2,3.591302633E-1,2.695871115E0,9.258378029E0
1.973794269E2,4.141969085E-1,2.645592928E0,9.390059471E0
1.976299151E2,3.974374831E-1,2.638410330E0,9.473855972E0
1.978803424E2,3.734954596E-1,2.636016130E0,9.466673851E0
1.981310138E2,3.256114423E-1,2.657563925E0,9.215282440E0
1.983816241E2,4.046200812E-1,2.616862535E0,9.311050415E0
1.986320819E2,5.003881454E-1,2.755726099E0,9.291896820E0
1.988825702E2,4.118026793E-1,2.679111719E0,9.141061783E0
1.991330890E2,3.064578176E-1,2.600103140E0,9.229647636E0
1.993836688E2,3.256114423E-1,2.597708941E0,9.270348549E0
1.996341571E2,3.423708379E-1,2.643198729E0,9.516951561E0
1.998846149E2,2.777273953E-1,2.621650934E0,9.179368973E0
2.001351031E2,2.825157940E-1,2.636016130E0,9.244012833E0
2.003856219E2,2.753331959E-1,2.619256735E0,9.363722801E0
2.006360492E2,3.136404157E-1,2.671929121E0,9.126696587E0
2.008865680E2,4.189853072E-1,2.669534922E0,9.325415611E0
2.011370868E2,3.543418646E-1,2.667140722E0,9.129091263E0
2.013876056E2,3.040636182E-1,2.633621931E0,9.270348549E0
2.016380939E2,2.418143749E-1,2.624045134E0,9.191340446E0
2.018888263E2,3.208230138E-1,2.643198729E0,9.222464561E0
2.021393756E2,3.327940404E-1,2.669534922E0,9.409213066E0
2.023898639E2,3.615244627E-1,2.681505919E0,9.339780807E0
2.026404742E2,3.902548850E-1,2.691082716E0,9.265560150E0
2.028909320E2,4.022258818E-1,2.698265314E0,9.196128845E0
2.031413898E2,3.998316824E-1,2.712630510E0,9.133879662E0
2.033918780E2,3.926490843E-1,2.698265314E0,9.423578262E0
2.036423358E2,4.118026793E-1,2.724601507E0,9.272743225E0
2.038929156E2,4.189853072E-1,2.760514498E0,9.411606789E0
2.041434344E2,2.825157940E-1,2.700659513E0,9.165003777E0
2.043939838E2,3.543418646E-1,2.691082716E0,9.356540680E0
2.046444110E2,3.136404157E-1,2.621650934E0,9.208099365E0
2.048949908E2,3.902548850E-1,2.612074137E0,9.327810287E0
2.051455707E2,3.471592367E-1,2.604891539E0,9.291896820E0
2.053960589E2,4.094084799E-1,2.664746523E0,9.198522568E0
2.056466693E2,2.873041928E-1,2.624045134E0,9.299078941E0
2.058973407E2,3.447650373E-1,2.640804529E0,9.346963882E0
2.061477984E2,3.758896589E-1,2.647987127E0,9.349357605E0
2.063983172E2,4.213795066E-1,2.703053713E0,9.354146004E0
2.066487445E2,3.399766386E-1,2.695871115E0,9.270348549E0
2.068993854E2,4.477157295E-1,2.679111719E0,9.248801231E0
2.071499957E2,4.309563041E-1,2.794033289E0,9.234436035E0
2.074006061E2,4.501099288E-1,2.767697096E0,9.150638580E0
2.076512469E2,4.908113480E-1,2.820369720E0,9.131484985E0
2.079017657E2,3.758896589E-1,2.760514498E0,9.205705643E0
2.081522845E2,4.716577232E-1,2.887407303E0,9.342175484E0
2.084028033E2,4.237737060E-1,2.825158119E0,9.160215378E0
2.086533221E2,5.099649429E-1,2.880224705E0,9.191340446E0
2.089037189E2,4.261679053E-1,2.851494312E0,9.236829758E0
2.091540546E2,4.070142806E-1,2.841917515E0,9.165003777E0
2.094047565E2,3.040636182E-1,2.710236311E0,9.220070839E0
2.096553058E2,3.878606856E-1,2.779668093E0,9.272743225E0
2.099057025E2,3.447650373E-1,2.738966703E0,9.155426979E0
2.101562518E2,4.237737060E-1,2.796427488E0,9.088389397E0
2.104069537E2,3.495534360E-1,2.748543501E0,9.251194954E0
2.106575030E2,3.399766386E-1,2.731784105E0,9.196128845E0
2.109080524E2,3.687070608E-1,2.762908697E0,9.109937668E0
2.111583880E2,3.591302633E-1,2.789244890E0,9.157821655E0
2.114088763E2,3.615244627E-1,2.741360903E0,9.330204010E0
2.116593341E2,4.453215301E-1,2.789244890E0,9.263166428E0
2.119097003E2,4.501099288E-1,2.777273893E0,9.165003777E0
2.121600970E2,4.046200812E-1,2.808398485E0,8.920795441E0
2.124106769E2,3.711012602E-1,2.813186884E0,9.085995674E0
2.126612567E2,4.118026793E-1,2.808398485E0,9.179368973E0
2.129118060E2,3.687070608E-1,2.794033289E0,9.188945770E0
2.131623553E2,3.423708379E-1,2.767697096E0,9.313444138E0
2.134129046E2,3.351882398E-1,2.767697096E0,9.332598686E0
2.136633319E2,3.519476354E-1,2.789244890E0,9.145850182E0
2.139137897E2,3.040636182E-1,2.777273893E0,9.145850182E0
2.141643390E2,3.878606856E-1,2.755726099E0,9.294290543E0
2.144148883E2,2.992752194E-1,2.738966703E0,9.303867340E0
2.146652240E2,4.094084799E-1,2.760514498E0,9.351752281E0
2.149156817E2,3.495534360E-1,2.741360903E0,9.150638580E0
2.151662616E2,1.795651317E-1,2.726995707E0,9.109937668E0
2.154167193E2,3.806780577E-1,2.753331900E0,9.488221169E0
2.156671466E2,3.112462163E-1,2.784456491E0,9.234436035E0
2.159176959E2,3.351882398E-1,2.803610086E0,9.236829758E0
2.161680621E2,3.303998411E-1,2.748543501E0,9.373299599E0
2.164187945E2,3.112462163E-1,2.772485495E0,9.176975250E0
2.166693744E2,2.609679997E-1,2.765302896E0,9.404424667E0
2.169200458E2,3.232172430E-1,2.839523315E0,9.157821655E0
2.171705340E2,4.357447028E-1,2.894589901E0,9.279925346E0
2.174211139E2,4.716577232E-1,2.952050686E0,9.155426979E0
2.176715106E2,4.429273009E-1,2.906560898E0,9.169792175E0
2.179220904E2,2.082955539E-1,2.786850691E0,9.275136948E0
2.181724261E2,2.681505978E-1,2.789244890E0,9.093177795E0
2.184228839E2,3.160346150E-1,2.753331900E0,9.363722801E0
2.186733417E2,3.184288144E-1,2.789244890E0,9.042900085E0
2.189238299E2,3.830722570E-1,2.772485495E0,9.315838814E0
2.191744098E2,3.567360640E-1,2.822763920E0,9.150638580E0
2.194249286E2,3.112462163E-1,2.760514498E0,9.217676163E0
2.196755084E2,3.758896589E-1,2.815581083E0,9.236829758E0
2.199261188E2,3.950432837E-1,2.834734917E0,9.129091263E0
2.201765155E2,4.525041282E-1,2.813186884E0,9.327810287E0
2.204271869E2,5.027823448E-1,2.834734917E0,9.153033257E0
2.206779803E2,4.620809257E-1,2.829946518E0,9.145850182E0
2.209284076E2,5.219359994E-1,2.786850691E0,9.323021889E0
2.211788653E2,4.716577232E-1,2.801215887E0,9.272743225E0
2.214294757E2,5.075707436E-1,2.861071110E0,9.193734169E0
2.216798419E2,5.363011956E-1,2.849100113E0,9.090784073E0
2.219304217E2,4.596867263E-1,2.851494312E0,9.133879662E0
2.221808185E2,4.285621047E-1,2.858676910E0,9.311050415E0
2.224312558E2,4.381389022E-1,2.858676910E0,9.279925346E0
2.226816830E2,3.734954596E-1,2.777273893E0,9.236829758E0
2.229322324E2,3.830722570E-1,2.837129116E0,9.093177795E0
2.231825986E2,3.830722570E-1,2.808398485E0,9.071630478E0
2.234331479E2,4.189853072E-1,2.774879694E0,9.157821655E0
2.236837277E2,3.519476354E-1,2.762908697E0,9.215282440E0
2.239341855E2,3.399766386E-1,2.760514498E0,9.382876396E0
2.241846127E2,4.501099288E-1,2.837129116E0,9.112331390E0
2.244351315E2,3.830722570E-1,2.782062292E0,9.083600998E0
2.246856503E2,4.668693244E-1,2.772485495E0,9.368511200E0
2.249362302E2,3.926490843E-1,2.772485495E0,9.208099365E0
2.251868405E2,2.992752194E-1,2.734178305E0,9.208099365E0
2.254372983E2,5.123591423E-1,2.844311714E0,9.275136948E0
2.256878476E2,3.232172430E-1,2.741360903E0,9.229647636E0
2.259384579E2,3.495534360E-1,2.765302896E0,9.229647636E0
2.261889767E2,4.932055473E-1,2.913743496E0,9.349357605E0
2.264394650E2,4.237737060E-1,2.827552319E0,9.188945770E0
2.266901975E2,4.788403511E-1,2.949656487E0,9.045293808E0
2.269407162E2,4.955997467E-1,2.942473888E0,9.160215378E0
2.271912961E2,4.692635238E-1,2.899378300E0,9.232041359E0
2.274417538E2,5.147533417E-1,2.861071110E0,9.215282440E0
2.276922726E2,3.471592367E-1,2.837129116E0,9.253589630E0
2.279428525E2,4.189853072E-1,2.841917515E0,9.308655739E0
2.281934323E2,4.477157295E-1,2.765302896E0,9.227252960E0
2.284441342E2,4.381389022E-1,2.815581083E0,9.062053680E0
2.286945309E2,3.519476354E-1,2.760514498E0,9.294290543E0
2.289449887E2,3.782838583E-1,2.743755102E0,9.145850182E0
2.291955685E2,3.591302633E-1,2.693476915E0,9.303867340E0
2.294461484E2,4.165911078E-1,2.803610086E0,9.095572472E0
2.296966367E2,4.046200812E-1,2.760514498E0,9.227252960E0
2.299471555E2,4.644751251E-1,2.762908697E0,9.203310966E0
2.301976437E2,4.812345505E-1,2.789244890E0,9.153033257E0
2.304482846E2,4.740519226E-1,2.837129116E0,9.143456459E0
2.306989560E2,4.644751251E-1,2.844311714E0,9.054870605E0
2.309495969E2,4.572925270E-1,2.875436306E0,9.217676163E0
2.312000546E2,4.716577232E-1,2.892195702E0,9.133879662E0
2.314505734E2,4.596867263E-1,2.858676910E0,9.313444138E0
2.317010617E2,4.429273009E-1,2.851494312E0,9.255983353E0
2.319514890E2,4.094084799E-1,2.813186884E0,9.138668060E0
2.322020993E2,4.141969085E-1,2.832340717E0,9.284713745E0
2.324524655E2,4.022258818E-1,2.813186884E0,9.260771751E0
2.327029538E2,4.644751251E-1,2.829946518E0,9.162610054E0
2.329533810E2,4.022258818E-1,2.808398485E0,9.124302864E0
2.332038083E2,4.285621047E-1,2.827552319E0,9.136273384E0
2.334546628E2,4.046200812E-1,2.820369720E0,9.296685219E0
2.337052426E2,4.788403511E-1,2.837129116E0,9.057265282E0
2.339557614E2,4.357447028E-1,2.772485495E0,9.074024200E0
2.342062802E2,3.902548850E-1,2.774879694E0,9.217676163E0
2.344567990E2,4.094084799E-1,2.770091295E0,9.375694275E0
2.347073483E2,4.237737060E-1,2.784456491E0,9.311050415E0
2.349578671E2,4.285621047E-1,2.743755102E0,9.208099365E0
2.352085385E2,4.309563041E-1,2.760514498E0,9.215282440E0
2.354590878E2,5.171475410E-1,2.817975283E0,9.141061783E0
2.357096371E2,5.003881454E-1,2.813186884E0,9.270348549E0
2.359600644E2,5.219359994E-1,2.822763920E0,8.942343712E0
2.362104916E2,5.003881454E-1,2.779668093E0,9.287108421E0
2.364609189E2,5.147533417E-1,2.784456491E0,9.239224434E0
2.367113461E2,3.974374831E-1,2.705447912E0,9.308655739E0
2.369618649E2,3.567360640E-1,2.707842112E0,9.138668060E0
2.372122922E2,4.429273009E-1,2.741360903E0,9.162610054E0
2.374628415E2,4.261679053E-1,2.772485495E0,9.188945770E0
2.377133603E2,4.716577232E-1,2.726995707E0,9.196128845E0
2.379640317E2,4.189853072E-1,2.715024710E0,9.275136948E0
2.382144589E2,4.165911078E-1,2.772485495E0,9.404424667E0
2.384648557E2,3.208230138E-1,2.726995707E0,9.258378029E0
2.387153134E2,4.261679053E-1,2.806004286E0,9.145850182E0
2.389661374E2,4.118026793E-1,2.782062292E0,9.253589630E0
2.392166562E2,3.303998411E-1,2.659958124E0,9.212887764E0
2.394671750E2,3.974374831E-1,2.724601507E0,9.378087997E0
2.397176938E2,4.692635238E-1,2.755726099E0,9.320627213E0
2.399682126E2,4.525041282E-1,2.765302896E0,9.224859238E0
2.402187314E2,4.333505034E-1,2.738966703E0,9.136273384E0
2.404692502E2,4.429273009E-1,2.755726099E0,9.299078941E0
2.407197079E2,4.309563041E-1,2.750937700E0,9.090784073E0
2.409702573E2,5.075707436E-1,2.834734917E0,9.248801231E0
2.412207761E2,4.692635238E-1,2.794033289E0,9.217676163E0
2.414713559E2,4.309563041E-1,2.770091295E0,9.203310966E0
2.417216611E2,4.357447028E-1,2.822763920E0,9.153033257E0
2.419721188E2,4.453215301E-1,2.791639090E0,9.411606789E0
2.422226987E2,3.806780577E-1,2.779668093E0,9.186552048E0
2.424732175E2,4.955997467E-1,2.734178305E0,9.018958092E0
2.427236447E2,4.070142806E-1,2.772485495E0,9.174580574E0
2.429744077E2,3.998316824E-1,2.729389906E0,9.244012833E0
2.432248959E2,3.639186621E-1,2.724601507E0,9.165003777E0
2.434755063E2,3.711012602E-1,2.753331900E0,9.227252960E0
2.437259946E2,4.213795066E-1,2.770091295E0,9.318233490E0
2.439766049E2,2.777273953E-1,2.698265314E0,9.291896820E0
2.442272153E2,4.788403511E-1,2.813186884E0,9.105149269E0
2.444775510E2,4.620809257E-1,2.832340717E0,9.184157372E0
2.447279782E2,5.410895944E-1,2.865859509E0,9.325415611E0
2.449784970E2,3.854664862E-1,2.827552319E0,9.267954826E0
2.452289853E2,3.615244627E-1,2.870647907E0,9.224859238E0
2.454793515E2,5.219359994E-1,2.913743496E0,9.246406555E0
2.457297787E2,3.136404157E-1,2.837129116E0,9.246406555E0
2.459802365E2,3.878606856E-1,2.846705914E0,9.047688484E0
2.462306027E2,3.399766386E-1,2.829946518E0,9.191340446E0
2.464811520E2,3.902548850E-1,2.861071110E0,9.198522568E0
2.467317624E2,2.944868207E-1,2.810792685E0,9.184157372E0
2.469820676E2,4.189853072E-1,2.870647907E0,9.088389397E0
2.472324033E2,4.261679053E-1,2.844311714E0,9.270348549E0
2.474830136E2,4.477157295E-1,2.896984100E0,9.117119789E0
2.477335934E2,3.830722570E-1,2.853888512E0,9.062053680E0
2.479841733E2,4.046200812E-1,2.851494312E0,9.157821655E0
2.482348141E2,3.974374831E-1,2.808398485E0,9.306262016E0
2.484853635E2,3.734954596E-1,2.832340717E0,9.196128845E0
2.487358823E2,4.884171486E-1,2.913743496E0,9.241618156E0
2.489864011E2,4.453215301E-1,2.870647907E0,9.217676163E0
2.492370114E2,4.070142806E-1,2.911349297E0,9.074024200E0
2.494874997E2,3.950432837E-1,2.885013103E0,9.153033257E0
2.497378964E2,3.663128614E-1,2.885013103E0,9.208099365E0
2.499885373E2,4.118026793E-1,2.880224705E0,9.071630478E0
2.502387814E2,4.094084799E-1,2.885013103E0,9.193734169E0
2.504894223E2,4.261679053E-1,2.880224705E0,9.229647636E0
2.507398801E2,3.734954596E-1,2.877830505E0,9.033323288E0
2.509904294E2,3.399766386E-1,2.825158119E0,9.241618156E0
2.512409482E2,4.309563041E-1,2.870647907E0,9.169792175E0
2.514913449E2,3.758896589E-1,2.813186884E0,9.208099365E0
2.517418942E2,4.237737060E-1,2.827552319E0,9.332598686E0
2.519923825E2,4.548983276E-1,2.894589901E0,8.992621422E0
2.522428403E2,3.639186621E-1,2.858676910E0,9.083600998E0
2.524933591E2,4.046200812E-1,2.851494312E0,9.124302864E0
2.527437863E2,3.711012602E-1,2.822763920E0,9.210494041E0
2.529942746E2,4.165911078E-1,2.906560898E0,9.133879662E0
2.532445964E2,4.213795066E-1,2.906560898E0,9.121908188E0
2.534951458E2,3.926490843E-1,2.856282711E0,9.009381294E0
2.537455120E2,3.184288144E-1,2.820369720E0,9.155426979E0
2.539960002E2,4.046200812E-1,2.877830505E0,9.308655739E0
2.542463665E2,4.046200812E-1,2.851494312E0,9.145850182E0
2.544968853E2,3.663128614E-1,2.841917515E0,9.109937668E0
2.547474346E2,3.950432837E-1,2.861071110E0,9.141061783E0
2.549979839E2,3.351882398E-1,2.789244890E0,9.277531624E0
2.552484111E2,3.902548850E-1,2.849100113E0,9.074024200E0
2.554989299E2,3.782838583E-1,2.806004286E0,9.153033257E0
2.557495403E2,4.381389022E-1,2.820369720E0,9.162610054E0
2.560000286E2,3.758896589E-1,2.825158119E0,9.241618156E0
2.562505168E2,4.118026793E-1,2.796427488E0,9.105149269E0
2.565012798E2,4.189853072E-1,2.750937700E0,9.188945770E0
2.567516155E2,3.782838583E-1,2.789244890E0,9.323021889E0
2.570020732E2,4.046200812E-1,2.789244890E0,9.222464561E0
2.572523174E2,5.075707436E-1,2.856282711E0,9.145850182E0
2.575029888E2,4.979939461E-1,2.815581083E0,9.227252960E0
2.577534465E2,4.237737060E-1,2.810792685E0,9.157821655E0
2.580038738E2,4.788403511E-1,2.877830505E0,9.176975250E0
2.582543315E2,4.740519226E-1,2.844311714E0,9.299078941E0
2.585048198E2,4.572925270E-1,2.861071110E0,9.054870605E0
2.587554302E2,2.633621991E-1,2.789244890E0,9.186552048E0
2.590059185E2,3.495534360E-1,2.837129116E0,9.258378029E0
2.592563762E2,2.681505978E-1,2.822763920E0,9.198522568E0
2.595069561E2,3.471592367E-1,2.803610086E0,9.409213066E0
2.597573528E2,3.591302633E-1,2.856282711E0,9.119514465E0
2.600078411E2,4.309563041E-1,2.870647907E0,9.215282440E0
2.602582378E2,3.830722570E-1,2.767697096E0,9.078812599E0
2.605087566E2,3.447650373E-1,2.729389906E0,9.311050415E0
2.607592754E2,4.118026793E-1,2.822763920E0,9.153033257E0
2.610096721E2,3.519476354E-1,2.770091295E0,9.253589630E0
2.612599773E2,3.280056417E-1,2.746149302E0,9.153033257E0
2.615107097E2,3.782838583E-1,2.808398485E0,9.217676163E0
2.617611980E2,3.519476354E-1,2.762908697E0,9.069235802E0
2.620117168E2,3.615244627E-1,2.822763920E0,9.129091263E0
2.622621440E2,4.285621047E-1,2.834734917E0,9.141061783E0
2.625126628E2,4.046200812E-1,2.827552319E0,9.215282440E0
2.627631206E2,3.351882398E-1,2.741360903E0,9.311050415E0
2.630134563E2,3.256114423E-1,2.750937700E0,9.174580574E0
2.632639446E2,3.327940404E-1,2.734178305E0,9.289502144E0
2.635145244E2,3.016694188E-1,2.734178305E0,9.270348549E0
2.637650737E2,2.777273953E-1,2.753331900E0,9.169792175E0
2.640156231E2,3.232172430E-1,2.786850691E0,9.248801231E0
2.642658977E2,3.758896589E-1,2.798821688E0,9.088389397E0
2.645164165E2,3.088520169E-1,2.734178305E0,9.334992409E0
2.647669658E2,3.256114423E-1,2.762908697E0,8.899248123E0
2.650176067E2,3.208230138E-1,2.794033289E0,9.265560150E0
2.652680645E2,4.118026793E-1,2.863465309E0,9.004592896E0
2.655184917E2,3.830722570E-1,2.786850691E0,9.294290543E0
2.657689495E2,3.615244627E-1,2.789244890E0,9.246406555E0
2.660196514E2,3.543418646E-1,2.762908697E0,9.299078941E0
2.662701397E2,4.141969085E-1,2.841917515E0,9.253589630E0
2.665205974E2,4.141969085E-1,2.837129116E0,9.047688484E0
2.667711772E2,3.687070608E-1,2.851494312E0,9.241618156E0
2.670218792E2,2.442085743E-1,2.786850691E0,9.117119789E0
2.672723674E2,2.130839527E-1,2.817975283E0,9.196128845E0
2.675227031E2,3.950432837E-1,2.894589901E0,9.220070839E0
2.677730999E2,3.160346150E-1,2.806004286E0,9.191340446E0
2.680234966E2,2.896983922E-1,2.767697096E0,9.119514465E0
2.682739544E2,2.944868207E-1,2.770091295E0,9.138668060E0
2.685245342E2,3.375824392E-1,2.817975283E0,9.334992409E0
2.687750530E2,3.615244627E-1,2.844311714E0,9.174580574E0
2.690256633E2,3.399766386E-1,2.820369720E0,9.150638580E0
2.692761211E2,3.447650373E-1,2.877830505E0,9.155426979E0
2.695266399E2,3.495534360E-1,2.779668093E0,9.282320023E0
2.697771282E2,3.064578176E-1,2.839523315E0,9.196128845E0
2.700276470E2,3.136404157E-1,2.796427488E0,9.208099365E0
2.702782268E2,3.184288144E-1,2.851494312E0,9.131484985E0
2.705286235E2,3.256114423E-1,2.815581083E0,9.284713745E0
2.707791118E2,2.920926213E-1,2.782062292E0,9.370905876E0
2.710296306E2,4.357447028E-1,2.796427488E0,9.263166428E0
2.712802410E2,3.687070608E-1,2.825158119E0,9.059659004E0
2.715307293E2,4.022258818E-1,2.865859509E0,9.188945770E0
2.717812175E2,3.854664862E-1,2.853888512E0,9.131484985E0
2.720317974E2,2.394201756E-1,2.753331900E0,9.277531624E0
2.722822551E2,2.154781520E-1,2.765302896E0,9.294290543E0
2.725328044E2,3.040636182E-1,2.815581083E0,9.351752281E0
2.727833232E2,2.681505978E-1,2.839523315E0,9.255983353E0
2.730339336E2,3.256114423E-1,2.851494312E0,9.227252960E0
2.732842388E2,2.537853718E-1,2.746149302E0,9.229647636E0
2.735348491E2,2.250549644E-1,2.796427488E0,9.205705643E0
2.737854290E2,3.327940404E-1,2.851494312E0,9.208099365E0
2.740358867E2,3.040636182E-1,2.829946518E0,9.363722801E0
2.742862529E2,2.992752194E-1,2.789244890E0,9.100360870E0
2.745368022E2,2.489969730E-1,2.782062292E0,9.124302864E0
2.747872905E2,3.136404157E-1,2.798821688E0,9.179368973E0
2.750377483E2,1.556231081E-1,2.626439333E0,9.212887764E0
2.752883281E2,3.375824392E-1,2.808398485E0,9.124302864E0
2.755387249E2,2.633621991E-1,2.717418909E0,8.860940933E0
2.757893352E2,-1.043871999E0,2.434903145E0,9.885659218E0
2.760399761E2,4.022258818E-1,2.968810081E0,8.425195694E0
2.762904949E2,3.160346150E-1,3.289633036E0,9.354146004E0
2.765410442E2,3.615244627E-1,3.110068083E0,8.647856712E0
2.767917156E2,7.613561153E-1,3.339911461E0,9.188945770E0
2.770423259E2,4.261679053E-1,3.114856482E0,9.162610054E0
2.772928447E2,9.026140571E-1,3.126827478E0,9.390059471E0
2.775433330E2,4.836287498E-1,3.296815634E0,9.246406555E0
2.777937908E2,7.302315235E-1,3.411737442E0,9.052476883E0
2.780443401E2,6.248866320E-1,3.342305660E0,8.937555313E0
2.782948894E2,6.655880809E-1,3.426102638E0,8.887276649E0
2.785454387E2,6.320692301E-1,3.423708439E0,8.927978516E0
2.787958355E2,5.985504389E-1,3.509899616E0,9.074024200E0
2.790464458E2,5.698199868E-1,3.488351822E0,9.042900085E0
2.792969036E2,5.698199868E-1,3.473986626E0,8.932766914E0
2.795473003E2,5.674257874E-1,3.433285236E0,8.973467827E0
2.797977581E2,5.961562395E-1,3.493140221E0,9.074024200E0
2.800481853E2,6.392518282E-1,3.481169224E0,9.083600998E0
2.802987346E2,5.961562395E-1,3.490746021E0,8.975862503E0
2.805491008E2,6.847416759E-1,3.543418407E0,8.935160637E0
2.807993755E2,6.679822803E-1,3.450044632E0,8.875306129E0
2.810497722E2,6.296750307E-1,3.452438831E0,8.856152534E0
2.813003215E2,6.057330370E-1,3.450044632E0,9.109937668E0
2.815508403E2,5.650315881E-1,3.466804028E0,8.973467827E0
2.818014507E2,5.985504389E-1,3.378218651E0,8.901641846E0
2.820519695E2,5.793967843E-1,3.454833031E0,9.035717010E0
2.823023967E2,5.195417404E-1,3.409343243E0,9.160215378E0
2.825528240E2,6.296750307E-1,3.435679436E0,8.916007042E0
2.828033428E2,6.105214357E-1,3.414131641E0,8.777143478E0
2.830539531E2,6.224924326E-1,3.390189648E0,8.963891029E0
2.833044414E2,5.722141862E-1,3.423708439E0,9.057265282E0
2.835549602E2,6.655880809E-1,3.514688015E0,9.004592896E0
2.838053569E2,5.841852427E-1,3.457227230E0,9.033323288E0
2.840558757E2,7.230489254E-1,3.521870613E0,8.803479195E0
2.843063335E2,5.171475410E-1,3.406949043E0,9.088389397E0
2.845569744E2,6.033388376E-1,3.421314240E0,8.954314232E0
2.848073711E2,5.243301988E-1,3.409343243E0,8.997409821E0
2.850578289E2,5.219359994E-1,3.416525841E0,9.047688484E0
2.853082866E2,6.296750307E-1,3.481169224E0,8.954314232E0
2.855588054E2,5.770025849E-1,3.457227230E0,8.947132111E0
2.858095073E2,7.517793179E-1,3.538630009E0,8.913613319E0
2.860601374E2,6.105214357E-1,3.493140221E0,9.011775017E0
2.863107783E2,6.153098345E-1,3.469198227E0,9.023746490E0
2.865613581E2,6.320692301E-1,3.435679436E0,9.052476883E0
2.868118769E2,6.248866320E-1,3.442862034E0,9.033323288E0
2.870623347E2,6.392518282E-1,3.485957623E0,8.927978516E0
2.873127009E2,6.033388376E-1,3.423708439E0,8.796297073E0
2.875629145E2,5.698199868E-1,3.414131641E0,8.942343712E0
2.878134333E2,5.099649429E-1,3.411737442E0,9.009381294E0
2.880639216E2,6.727706790E-1,3.457227230E0,9.018958092E0
2.883143794E2,6.081272364E-1,3.452438831E0,8.887276649E0
2.885648982E2,6.560112834E-1,3.490746021E0,9.081207275E0
2.888154780E2,6.153098345E-1,3.447650433E0,9.064447403E0
2.890659052E2,5.722141862E-1,3.423708439E0,9.059659004E0
2.893163325E2,6.392518282E-1,3.402160645E0,9.026140213E0
2.895669428E2,6.967126727E-1,3.509899616E0,8.810662270E0
2.898174922E2,6.871358752E-1,3.450044632E0,8.947132111E0
2.900682246E2,5.746083856E-1,3.430891037E0,8.956708908E0
2.903186823E2,6.200982332E-1,3.440467834E0,8.872911453E0
2.905691706E2,5.698199868E-1,3.414131641E0,9.076418877E0
2.908195063E2,6.081272364E-1,3.426102638E0,9.045293808E0
2.910700251E2,5.578489900E-1,3.421314240E0,8.870517731E0
2.913204218E2,6.751648784E-1,3.462015629E0,8.927978516E0
2.915710017E2,5.650315881E-1,3.394978046E0,8.949525833E0
2.918214594E2,5.889736414E-1,3.397372246E0,8.990227699E0
2.920721308E2,5.650315881E-1,3.423708439E0,8.920795441E0
2.923227107E2,5.506663918E-1,3.368641853E0,9.148244858E0
2.925732295E2,5.626373887E-1,3.438073635E0,8.808267593E0
2.928240839E2,7.541735172E-1,3.567360640E0,8.992621422E0
2.930744807E2,6.775590777E-1,3.509899616E0,8.650250435E0
2.933249384E2,6.272808313E-1,3.478775024E0,8.966285706E0
2.935755488E2,6.105214357E-1,3.445256233E0,8.863334656E0
2.938262202E2,5.363011956E-1,3.440467834E0,9.021351814E0
2.940766779E2,5.889736414E-1,3.445256233E0,9.090784073E0
2.943271357E2,6.488286853E-1,3.509899616E0,8.774748802E0
2.945775935E2,6.416460276E-1,3.485957623E0,8.899248123E0
2.948279902E2,5.458779931E-1,3.426102638E0,8.868123055E0
2.950785395E2,5.267243981E-1,3.418920040E0,8.992621422E0
2.953289973E2,6.464344859E-1,3.452438831E0,8.963891029E0
2.955793025E2,5.817909837E-1,3.433285236E0,8.992621422E0
2.958298518E2,5.482721925E-1,3.387795448E0,8.937555313E0
2.960802485E2,4.860229492E-1,3.387795448E0,8.990227699E0
2.963307978E2,6.009446383E-1,3.430891037E0,9.011775017E0
2.965813471E2,5.722141862E-1,3.428496838E0,8.937555313E0
2.968318049E2,5.722141862E-1,3.359065056E0,9.071630478E0
2.970823237E2,5.578489900E-1,3.435679436E0,9.011775017E0
2.973329646E2,5.171475410E-1,3.409343243E0,8.971074104E0
2.975836054E2,6.464344859E-1,3.416525841E0,8.999804497E0
2.978339716E2,6.416460276E-1,3.483563423E0,8.762778282E0
2.980845820E2,6.344634295E-1,3.450044632E0,8.947132111E0
2.983350092E2,5.937620401E-1,3.414131641E0,8.942343712E0
2.985855280E2,5.123591423E-1,3.409343243E0,9.018958092E0
2.988360163E2,5.363011956E-1,3.394978046E0,9.050082207E0
2.990865046E2,6.320692301E-1,3.414131641E0,9.105149269E0
2.993372065E2,5.889736414E-1,3.450044632E0,8.872911453E0
2.995877558E2,6.584054828E-1,3.426102638E0,9.095572472E0
2.998382441E2,5.147533417E-1,3.428496838E0,9.176975250E0
