"Time (s)","Gyroscope x (rad/s)","Gyroscope y (rad/s)","Gyroscope z (rad/s)"
2.443237310E-1,-1.012001187E-2,-8.255799860E-2,-3.195793182E-2
4.946899420E-1,-1.864212751E-2,-2.130528912E-2,3.515372798E-2
7.453613280E-1,-2.503371425E-2,1.917476021E-2,2.183792181E-2
9.959411620E-1,-8.096009493E-2,4.740426689E-2,5.326322280E-3
1.246520996E0,1.150485575E-1,1.123853996E-1,-3.675162420E-2
1.497039795E0,1.720402092E-1,-1.065264456E-2,-9.054748341E-3
1.747680664E0,-9.960222989E-2,-4.793690145E-2,6.391586736E-3
1.998199463E0,-3.515372798E-2,-3.195793368E-3,-1.278317347E-2
2.248718262E0,-2.396845073E-2,2.343581803E-2,4.261057824E-3
2.499237061E0,-2.556634694E-2,5.113269389E-2,5.326322466E-2
2.749664307E0,7.350324839E-2,-7.456851192E-3,-7.030745596E-2
3.000152588E0,1.065264456E-3,1.384843793E-2,3.994741663E-2
3.250823975E0,-8.575379103E-2,4.687163606E-2,5.965480953E-2
3.501403809E0,6.391586363E-2,-2.130528912E-3,4.154531285E-2
3.751953125E0,-1.757686399E-2,-3.302319720E-2,-2.982740477E-2
4.002593994E0,1.491370238E-2,2.183792181E-2,-6.391586736E-3
4.252960205E0,1.544633508E-2,2.556634694E-2,1.278317347E-2
4.503295899E0,5.326322280E-3,-3.089267015E-2,-2.183792181E-2
4.753784180E0,-2.343581803E-2,3.408846259E-2,2.503371425E-2
5.004364014E0,-6.551376730E-2,5.273059011E-2,3.994741663E-2
5.254943848E0,1.810949668E-2,3.462109342E-2,2.290318534E-2
5.505371094E0,-1.810949668E-2,-5.858954508E-3,1.225054078E-2
5.755798340E0,-3.888215125E-2,-2.503371425E-2,-2.130528912E-3
6.006378174E0,-1.065264456E-2,5.113269389E-2,2.929477207E-2
6.256866455E0,2.876213938E-2,-7.989482954E-3,2.130528912E-2
6.507293701E0,4.261057824E-3,4.261057824E-3,1.012001187E-2
6.757934571E0,7.989482954E-3,-2.929477207E-2,1.065264456E-3
7.008361817E0,2.130528912E-2,8.522115648E-3,-1.118527725E-2
7.258972168E0,1.278317347E-2,6.924218964E-3,-2.663161140E-3
7.509613037E0,2.183792181E-2,-3.888215125E-2,7.456851192E-3
7.760192871E0,-6.924218964E-3,-2.556634694E-2,1.065264456E-2
8.010620117E0,-2.663161233E-2,-5.858954508E-3,-3.195793368E-3
8.261077881E0,-3.728425503E-2,-1.065264456E-3,4.261057824E-3
8.511444092E0,-1.065264456E-3,3.408846259E-2,-1.065264456E-3
8.762054444E0,1.491370238E-2,-1.118527725E-2,2.024002373E-2
9.012695313E0,-1.864212751E-2,-1.597896684E-3,5.326322280E-3
9.263153076E0,-6.391586736E-3,-3.515372798E-2,-6.391586736E-3
9.513610840E0,2.077265643E-2,-5.858954415E-2,-9.054748341E-3
9.764129639E0,3.142530099E-2,-4.633900523E-2,-1.278317347E-2
1.001486206E1,-4.314320907E-2,3.355583176E-2,1.171790902E-2
1.026513672E1,-1.438106969E-2,3.515372798E-2,-6.924218964E-3
1.051574707E1,1.225054078E-2,-1.757686399E-2,-1.278317347E-2
1.076657105E1,-8.522115648E-3,1.331580617E-2,6.391586736E-3
1.101705933E1,-1.171790902E-2,-2.769687586E-2,-5.326322280E-3
1.126745606E1,-6.924218964E-3,-1.597896684E-3,-1.651159860E-2
1.151779175E1,-3.249056637E-2,2.183792181E-2,1.544633508E-2
1.176828003E1,-2.130528912E-3,2.343581803E-2,-1.065264456E-3
1.201870728E1,-2.343581803E-2,2.024002373E-2,8.522115648E-3
1.226925659E1,-1.917476021E-2,2.716424316E-2,5.326322280E-4
1.251959229E1,-1.065264456E-3,-7.456851192E-3,2.663161140E-3
1.277005005E1,1.810949668E-2,-1.757686399E-2,-7.456851192E-3
1.302059936E1,9.054748341E-3,-2.929477207E-2,2.130528912E-3
1.327108765E1,-1.331580617E-2,2.503371425E-2,1.384843793E-2
1.352178955E1,-1.597896591E-2,-2.450108156E-2,-6.391586736E-3
1.377246094E1,5.326322280E-3,-8.522115648E-3,-5.326322280E-4
1.402285767E1,-1.065264456E-3,-1.970739290E-2,-2.663161140E-3
1.427328491E1,-2.130528912E-2,-2.130528912E-3,1.012001187E-2
1.452392578E1,1.331580617E-2,-8.522115648E-3,-6.924218964E-3
1.477438355E1,2.290318534E-2,-5.858954508E-3,-1.810949668E-2
1.502502441E1,-2.237055451E-2,1.171790902E-2,3.089267015E-2
1.527557373E1,-2.290318534E-2,3.568635881E-2,3.036003746E-2
1.552603149E1,5.326322280E-4,-4.261057824E-3,-1.970739290E-2
1.577664185E1,2.183792181E-2,-1.597896591E-2,4.261057824E-3
1.602713013E1,5.326322280E-3,1.491370238E-2,1.597896684E-3
1.627740478E1,-1.917476021E-2,-5.326322280E-4,9.587380104E-3
1.652798462E1,2.663161233E-2,-3.302319720E-2,-4.793690052E-3
1.677844238E1,-2.982740477E-2,2.237055451E-2,8.522115648E-3
1.702886963E1,9.587380104E-3,5.858954508E-3,1.651159860E-2
1.727935791E1,-1.544633508E-2,3.408846259E-2,1.704423130E-2
1.752993774E1,-2.237055451E-2,3.408846259E-2,1.065264456E-3
1.778033447E1,3.728425596E-3,-8.522115648E-3,-9.054748341E-3
1.803088379E1,1.118527725E-2,-2.077265643E-2,1.438106969E-2
1.828143311E1,8.522115648E-3,2.130528912E-3,1.597896591E-2
1.853189087E1,-7.989482954E-3,2.183792181E-2,8.522115648E-3
1.878250122E1,-5.645901710E-2,4.793690052E-3,2.183792181E-2
1.903289795E1,-6.924218964E-3,-4.793690052E-3,-6.924218964E-3
1.928338623E1,1.331580617E-2,1.864212751E-2,8.522115648E-3
1.953390503E1,-4.261057824E-3,1.438106969E-2,1.331580617E-2
1.978430176E1,-2.130528912E-3,-1.597896684E-3,-2.663161140E-3
2.003482056E1,-3.195793368E-3,-1.118527725E-2,4.261057824E-3
2.028549194E1,-7.456851192E-3,5.326322280E-3,2.663161140E-3
2.053598023E1,1.757686399E-2,3.195793368E-3,4.793690052E-3
2.078646851E1,-1.651159860E-2,1.597896591E-2,7.456851192E-3
2.103686524E1,-1.331580617E-2,5.326322280E-3,-4.793690052E-3
2.128729248E1,-2.609897964E-2,1.065264456E-3,-1.065264456E-2
2.153781128E1,8.522115648E-3,-6.391586736E-3,-2.130528912E-3
2.178826904E1,-1.384843793E-2,-2.663161140E-3,1.278317347E-2
2.203869629E1,2.769687586E-2,-3.195793182E-2,0.000000000E0
2.228918457E1,-3.089267015E-2,3.355583176E-2,5.326322280E-3
2.253976440E1,-5.219795927E-2,3.036003746E-2,1.864212751E-2
2.279016113E1,-1.278317347E-2,5.858954508E-3,1.065264456E-3
2.304067993E1,-1.171790902E-2,2.663161140E-3,6.391586736E-3
2.329125977E1,-3.249056637E-2,-3.142530099E-2,-2.609897964E-2
2.354159546E1,2.663161233E-2,-4.527373984E-2,-1.970739290E-2
2.379217529E1,2.130528912E-2,-5.858954508E-3,-1.544633508E-2
2.404272461E1,4.101268202E-2,2.130528912E-3,-7.989482954E-3
2.429318237E1,0.000000000E0,-2.663161140E-3,9.587380104E-3
2.454370117E1,-3.888215125E-2,2.343581803E-2,2.876213938E-2
2.479443359E1,9.054748341E-3,1.171790902E-2,-2.290318534E-2
2.504476929E1,-5.326322280E-3,4.261057824E-3,1.331580617E-2
2.529541016E1,-5.592638254E-2,6.391586363E-2,2.556634694E-2
2.554589844E1,3.568635881E-2,1.757686399E-2,-2.929477207E-2
2.579647827E1,-2.503371425E-2,2.663161140E-3,3.036003746E-2
2.604681397E1,-9.587380104E-3,1.704423130E-2,1.438106969E-2
2.629724121E1,-9.587380104E-3,-3.036003746E-2,-9.054748341E-3
2.654785156E1,-2.077265643E-2,-1.438106969E-2,0.000000000E0
2.679833984E1,8.522115648E-3,9.054748341E-3,3.728425596E-3
2.704882812E1,1.651159860E-2,1.065264456E-2,4.793690052E-3
2.729922485E1,6.018744037E-2,2.663161140E-3,1.065264456E-3
2.754980469E1,-9.587380104E-3,5.326322280E-4,-1.810949668E-2
2.780026245E1,-2.663161140E-3,-3.142530099E-2,-2.024002373E-2
2.805072022E1,1.118527725E-2,-6.391586736E-3,2.130528912E-3
2.830114746E1,1.012001187E-2,-4.261057824E-3,-9.054748341E-3
2.855157471E1,3.195793368E-3,2.822950855E-2,3.515372798E-2
2.880209351E1,6.391586736E-3,2.077265643E-2,1.597896591E-2
2.905273438E1,-1.438106969E-2,1.810949668E-2,1.331580617E-2
2.930313110E1,1.384843793E-2,-2.663161233E-2,-1.065264456E-2
2.955352783E1,4.793690052E-3,1.118527725E-2,6.924218964E-3
2.980392456E1,-3.728425596E-3,3.195793368E-3,-1.118527725E-2
3.005422974E1,2.396845073E-2,-1.597896684E-3,-1.544633508E-2
3.030465698E1,1.438106969E-2,1.651159860E-2,-5.858954508E-3
3.055508423E1,1.810949668E-2,-2.663161140E-3,-1.012001187E-2
3.080581665E1,1.810949668E-2,-1.331580617E-2,3.728425596E-3
3.105621338E1,7.989482954E-3,-9.054748341E-3,1.544633508E-2
3.130673218E1,8.522115648E-3,0.000000000E0,2.290318534E-2
3.155725098E1,8.522115648E-3,4.793690052E-3,6.924218964E-3
3.180795288E1,0.000000000E0,-5.326322280E-3,0.000000000E0
3.205859375E1,4.261057824E-3,-5.326322280E-4,-4.261057824E-3
3.230914307E1,1.118527725E-2,-3.728425596E-3,7.989482954E-3
3.255938721E1,-1.118527725E-2,1.225054078E-2,2.290318534E-2
3.280987549E1,-9.054748341E-3,-4.793690052E-3,1.384843793E-2
3.306021118E1,-4.261057824E-3,1.278317347E-2,-5.326322280E-3
3.331072998E1,6.391586736E-3,7.456851192E-3,4.793690052E-3
3.356124878E1,-2.130528912E-3,2.290318534E-2,1.651159860E-2
3.381179810E1,5.326322280E-3,0.000000000E0,-5.326322280E-3
3.406219482E1,-3.142530099E-2,3.249056637E-2,2.929477207E-2
3.431265259E1,-8.522115648E-3,-1.065264456E-3,-3.728425596E-3
3.456329346E1,3.728425596E-3,-4.793690052E-3,4.261057824E-3
3.481390381E1,7.989482954E-3,1.757686399E-2,6.924218964E-3
3.506423950E1,-1.651159860E-2,3.195793368E-3,-2.130528912E-3
3.531463623E1,4.793690052E-3,3.462109342E-2,5.858954508E-3
3.556515503E1,7.456851192E-3,9.054748341E-3,-1.171790902E-2
3.581570435E1,2.609897964E-2,-1.651159860E-2,-4.793690052E-3
3.606597976E1,7.989482954E-3,-1.757686399E-2,-9.054748341E-3
3.631631546E1,7.989482954E-3,7.456851192E-3,1.065264456E-3
3.656683426E1,-2.663161140E-3,2.130528912E-2,1.225054078E-2
3.681729202E1,-3.089267015E-2,-1.544633508E-2,8.522115648E-3
3.706784134E1,-3.302319720E-2,-1.970739290E-2,-1.171790902E-2
3.731817703E1,-5.273059011E-2,-4.367584363E-2,-9.587380104E-3
3.756857376E1,1.065264456E-2,-8.522115648E-3,2.663161140E-3
3.781918411E1,1.810949668E-2,-1.225054078E-2,-6.391586736E-3
3.806967239E1,1.757686399E-2,1.544633508E-2,-7.456851192E-3
3.832016067E1,2.077265643E-2,2.237055451E-2,3.195793368E-3
3.857061843E1,-2.609897964E-2,3.195793368E-3,-1.597896591E-2
3.882113723E1,-4.793690052E-3,-6.924218964E-3,-4.261057824E-3
3.907165603E1,-7.456851192E-3,-3.195793368E-3,9.587380104E-3
3.932232742E1,-3.728425596E-3,4.793690052E-3,2.130528912E-3
3.957287674E1,-2.343581803E-2,-4.367584363E-2,-1.171790902E-2
3.982330398E1,1.597896684E-3,-1.225054078E-2,-1.597896684E-3
4.007379226E1,-2.663161233E-2,2.396845073E-2,1.810949668E-2
4.032431106E1,-7.989482954E-3,1.757686399E-2,-2.130528912E-3
4.057476882E1,-6.391586736E-3,6.391586736E-3,-5.858954508E-3
4.082550125E1,2.183792181E-2,-2.237055451E-2,-2.237055451E-2
4.107595901E1,3.195793368E-3,-6.924218964E-3,9.587380104E-3
4.132663040E1,4.261057824E-3,9.054748341E-3,2.130528912E-3
4.157708816E1,-5.858954508E-3,5.326322280E-4,6.391586736E-3
4.182751541E1,1.012001187E-2,-1.544633508E-2,-3.195793368E-3
4.207797317E1,2.024002373E-2,-8.522115648E-3,0.000000000E0
4.232836990E1,-5.326322280E-4,1.065264456E-2,5.858954508E-3
4.257888870E1,-1.065264456E-3,1.065264456E-3,6.924218964E-3
4.282952957E1,-1.278317347E-2,3.728425596E-3,7.456851192E-3
4.308013992E1,1.118527725E-2,-1.384843793E-2,2.663161140E-3
4.333065872E1,4.793690052E-3,-2.982740477E-2,-1.597896684E-3
4.358096389E1,-1.278317347E-2,1.597896591E-2,1.544633508E-2
4.383142166E1,-1.491370238E-2,-7.456851192E-3,0.000000000E0
4.408181839E1,-1.278317347E-2,0.000000000E0,-6.391586736E-3
4.433221511E1,-1.118527725E-2,9.054748341E-3,1.438106969E-2
4.458258132E1,-3.195793368E-3,1.864212751E-2,-5.326322280E-3
4.483285598E1,1.597896684E-3,1.065264456E-2,1.544633508E-2
4.508337478E1,1.331580617E-2,2.130528912E-2,2.663161140E-3
4.533401565E1,2.663161140E-3,6.391586736E-3,-5.326322280E-3
4.558422927E1,6.924218964E-3,-1.384843793E-2,-1.331580617E-2
4.583487014E1,3.195793368E-3,-1.917476021E-2,-1.864212751E-2
4.608538894E1,5.858954508E-3,-5.326322280E-4,3.195793368E-3
4.633587722E1,-7.456851192E-3,-5.326322280E-4,0.000000000E0
4.658639602E1,-3.195793368E-3,-1.597896591E-2,1.384843793E-2
4.683688430E1,-5.858954508E-3,9.587380104E-3,5.858954508E-3
4.708746414E1,-3.728425596E-3,-5.326322280E-4,-8.522115648E-3
4.733795242E1,-2.077265643E-2,-2.343581803E-2,-1.438106969E-2
4.758844070E1,7.989482954E-3,-3.728425596E-3,5.326322280E-3
4.783902053E1,5.858954508E-3,1.065264456E-2,1.810949668E-2
4.808938675E1,-5.326322280E-4,3.195793368E-3,3.728425596E-3
4.833996658E1,-3.728425596E-3,-3.195793368E-3,-3.728425596E-3
4.859030227E1,1.331580617E-2,-4.793690145E-2,-1.970739290E-2
4.884066848E1,1.438106969E-2,-3.728425596E-3,4.261057824E-3
4.909109573E1,-2.556634694E-2,1.331580617E-2,5.858954415E-2
4.934176712E1,0.000000000E0,-2.822950855E-2,-5.592638254E-2
4.959265213E1,2.077265643E-2,-6.924218964E-3,-7.456851192E-3
4.984317092E1,-3.195793368E-3,2.290318534E-2,4.261057824E-3
5.009365921E1,-1.970739290E-2,-2.343581803E-2,1.384843793E-2
5.034423904E1,-7.989482954E-3,-6.924218964E-3,5.858954508E-3
5.059466629E1,-1.118527725E-2,1.012001187E-2,1.065264456E-3
5.084521560E1,-6.391586736E-3,6.391586736E-3,-1.012001187E-2
5.109561233E1,-4.261057824E-3,1.384843793E-2,3.195793368E-3
5.134613113E1,1.065264456E-2,0.000000000E0,-3.195793368E-3
5.159668045E1,6.924218964E-3,7.989482954E-3,-7.989482954E-3
5.184732132E1,1.118527725E-2,-1.597896684E-3,-9.054748341E-3
5.209774856E1,1.225054078E-2,-7.989482954E-3,-6.391586736E-3
5.234808426E1,1.384843793E-2,5.326322280E-3,4.793690052E-3
5.259857254E1,-1.161138266E-1,8.042746782E-2,1.864212751E-2
5.284909134E1,3.728425596E-3,5.326322280E-4,-3.195793368E-3
5.309964065E1,-2.982740477E-2,2.130528912E-3,-3.728425596E-3
5.335028152E1,5.326322280E-4,-2.077265643E-2,-1.810949668E-2
5.360080032E1,6.924218964E-3,-3.675162420E-2,2.663161233E-2
5.385147171E1,1.225054078E-2,1.757686399E-2,1.651159860E-2
5.410208206E1,-8.522115648E-3,2.237055451E-2,6.391586736E-3
5.435269241E1,-1.065264456E-2,-1.065264456E-2,-7.989482954E-3
5.460321121E1,2.556634694E-2,5.326322280E-4,2.663161140E-3
5.485357742E1,1.278317347E-2,1.810949668E-2,1.278317347E-2
5.510394363E1,1.065264456E-3,1.704423130E-2,7.989482954E-3
5.535446243E1,1.597896591E-2,-3.195793368E-3,4.793690052E-3
5.560510330E1,-3.355583176E-2,-4.793690052E-3,-1.491370238E-2
5.585556106E1,-1.597896591E-2,3.195793368E-3,3.195793368E-3
5.610604934E1,7.989482954E-3,3.036003746E-2,9.587380104E-3
5.635653762E1,-1.065264456E-2,3.195793368E-3,7.989482954E-3
5.660705642E1,5.326322280E-4,1.331580617E-2,-9.054748341E-3
5.685757522E1,1.651159860E-2,4.793690052E-3,2.663161140E-3
5.710815506E1,-4.793690052E-3,8.522115648E-3,1.597896591E-2
5.735864334E1,-3.195793368E-3,-4.793690052E-3,6.924218964E-3
5.760916214E1,1.651159860E-2,-2.130528912E-3,-9.054748341E-3
5.785965042E1,-3.728425596E-3,-1.597896684E-3,-1.810949668E-2
5.810998611E1,-2.663161140E-3,1.491370238E-2,6.924218964E-3
5.836053543E1,7.989482954E-3,-7.456851192E-3,-1.278317347E-2
5.861102371E1,2.077265643E-2,-1.757686399E-2,-2.024002373E-2
5.886151199E1,2.663161233E-2,1.597896591E-2,3.728425596E-3
5.911193924E1,1.651159860E-2,-2.663161140E-3,6.391586736E-3
5.936236648E1,5.858954508E-3,-1.331580617E-2,4.793690052E-3
5.961291580E1,-9.054748341E-3,2.663161233E-2,7.456851192E-3
5.986346511E1,-1.225054078E-2,6.924218964E-3,-2.663161140E-3
6.011404495E1,-4.793690052E-3,-3.195793368E-3,-5.858954508E-3
6.036459426E1,4.793690052E-3,3.728425596E-3,5.326322280E-3
6.061505203E1,-4.261057824E-3,-2.130528912E-3,5.326322280E-3
6.086569290E1,-2.130528912E-3,-3.728425503E-2,-7.989482954E-3
6.111608963E1,-1.597896684E-3,1.917476021E-2,1.597896684E-3
6.136663894E1,-1.810949668E-2,6.924218964E-3,6.391586736E-3
6.161721878E1,3.728425596E-3,-1.384843793E-2,3.195793368E-3
6.186776809E1,-2.290318534E-2,-2.663161140E-3,-7.456851192E-3
6.211816482E1,2.716424316E-2,2.130528912E-3,-2.130528912E-3
6.236862259E1,9.054748341E-3,-1.225054078E-2,2.663161140E-3
6.261908035E1,5.858954508E-3,1.118527725E-2,5.326322280E-4
6.286966018E1,-6.391586736E-3,-3.355583176E-2,-8.522115648E-3
6.311999588E1,-3.195793368E-3,1.118527725E-2,3.195793368E-3
6.337057571E1,-1.012001187E-2,2.450108156E-2,2.343581803E-2
6.362106399E1,0.000000000E0,-1.278317347E-2,6.391586736E-3
6.387161331E1,-1.012001187E-2,5.326322280E-4,7.989482954E-3
6.412197952E1,5.326322280E-3,3.941478580E-2,1.970739290E-2
6.437246780E1,-5.326322280E-4,-1.065264456E-3,1.278317347E-2
6.462298660E1,-1.970739290E-2,-6.924218964E-3,1.065264456E-3
6.487359695E1,9.054748341E-3,-2.929477207E-2,-2.290318534E-2
6.512393264E1,-1.012001187E-2,1.384843793E-2,-1.597896684E-3
6.537448196E1,-1.597896684E-3,-2.503371425E-2,7.456851192E-3
6.562500076E1,-1.118527725E-2,-4.793690052E-3,1.225054078E-2
6.587539749E1,-3.195793368E-3,2.876213938E-2,4.527373984E-2
6.612591629E1,3.195793182E-2,2.130528912E-2,-3.036003746E-2
6.637649612E1,-3.089267015E-2,-3.515372798E-2,-2.503371425E-2
6.662698440E1,2.769687586E-2,-5.805691332E-2,-7.137271762E-2
6.687749802E1,1.379517466E-1,5.006742850E-2,7.829693705E-2
6.712807786E1,-2.982740477E-2,1.065264456E-2,-7.776430249E-2
6.737874924E1,-1.448759735E-1,-9.906959534E-2,-1.480717659E-1
6.762935960E1,2.556634694E-2,-1.454086006E-1,-1.065264456E-2
6.787987839E1,-1.091896072E-1,2.732403278E-1,7.291735411E-1
6.813033616E1,-2.359560728E-1,-1.225054078E-2,4.932174385E-1
6.838088547E1,3.632551730E-1,-9.534116834E-2,-3.589941263E-1
6.863131272E1,-1.091896072E-1,-1.257012039E-1,-2.444781959E-1
6.888170945E1,-2.663161233E-2,-5.006742850E-2,2.876213938E-2
6.913210618E1,4.463458061E-1,-1.049285457E-1,-4.367584363E-2
6.938241135E1,2.918824553E-1,5.326322466E-2,-1.171790883E-1
6.963280808E1,-4.633900523E-2,-3.249056637E-2,-5.752427876E-2
6.988347947E1,-1.384843737E-1,-1.267664731E-1,-2.237055451E-2
7.013393723E1,1.065264456E-2,-6.764429063E-2,-6.391586736E-3
7.038445603E1,8.948221803E-2,-2.183792181E-2,-7.403588295E-2
7.063485276E1,-1.027980223E-1,-3.834952042E-2,-2.343581803E-2
7.088537156E1,-1.150485575E-1,2.130528912E-3,3.089267015E-2
7.113579880E1,6.498113275E-2,-6.924218964E-3,-1.161138266E-1
7.138622605E1,1.006674916E-1,1.544633508E-2,1.049285457E-1
7.163665330E1,-1.864212751E-2,-2.077265643E-2,9.054748341E-3
7.188701951E1,-4.687163606E-2,2.290318534E-2,-5.858954508E-3
7.213738572E1,4.793690145E-2,7.829693705E-2,6.924218684E-2
7.238793504E1,2.237055451E-2,-1.597896684E-3,-5.326322280E-3
7.263854539E1,6.924218684E-2,1.810949668E-2,9.693906456E-2
7.288897263E1,3.195793368E-3,-2.183792181E-2,1.917476021E-2
7.313939988E1,2.929477207E-2,-7.989482954E-3,1.917476021E-2
7.338985764E1,5.858954508E-3,1.278317347E-2,3.462109342E-2
7.364031541E1,-1.597896591E-2,-1.597896684E-3,-2.024002373E-2
7.389074265E1,-2.077265643E-2,8.522115648E-3,-4.261057824E-3
7.414126145E1,-1.278317347E-2,1.331580617E-2,2.077265643E-2
7.439174973E1,-1.012001187E-2,-1.810949668E-2,-2.237055451E-2
7.464242112E1,-2.663161140E-3,1.331580617E-2,5.326322280E-4
7.489281785E1,1.118527725E-2,-4.261057824E-3,-8.522115648E-3
7.514333665E1,-2.024002373E-2,-1.331580617E-2,-3.408846259E-2
7.539385544E1,-2.396845073E-2,-1.384843793E-2,-1.597896591E-2
7.564422166E1,-1.810949668E-2,-9.054748341E-3,-2.769687586E-2
7.589498460E1,3.781688958E-2,-1.118527725E-2,2.077265643E-2
7.614522874E1,4.793690052E-3,-2.396845073E-2,-5.326322280E-3
7.639577805E1,-1.171790902E-2,6.924218964E-3,3.195793182E-2
7.664599168E1,-1.970739290E-2,1.651159860E-2,4.261057824E-3
7.689641892E1,-5.326322466E-2,-8.522115648E-3,-2.450108156E-2
7.714690720E1,2.290318534E-2,3.994741663E-2,1.065264456E-3
7.739748704E1,-5.326322280E-3,-3.728425596E-3,-3.462109342E-2
7.764809739E1,-4.367584363E-2,-5.539375171E-2,9.054748341E-3
7.789870774E1,5.326322280E-3,-6.551376730E-2,1.065264456E-2
7.814916550E1,-5.326322280E-4,-2.609897964E-2,2.183792181E-2
7.839968430E1,-4.953479767E-2,-1.171790902E-2,-9.587380104E-3
7.865005051E1,-2.556634694E-2,-9.906959534E-2,-7.243798673E-2
7.890081345E1,-2.450108156E-2,-9.054748341E-3,4.793690052E-3
7.915108811E1,4.048004746E-2,6.924218964E-3,-7.243798673E-2
7.940139329E1,-1.917476021E-2,2.237055451E-2,2.982740477E-2
7.965188157E1,6.924218964E-3,4.793690052E-3,-2.077265643E-2
7.990246140E1,-4.261057824E-3,-2.130528912E-3,-1.012001187E-2
8.015298020E1,-9.054748341E-3,3.195793368E-3,-3.195793368E-3
8.040362107E1,3.302319720E-2,-1.917476021E-2,-7.989482954E-3
8.065404832E1,1.651159860E-2,-2.130528912E-2,-4.261057824E-3
8.090462815E1,-2.396845073E-2,2.663161140E-3,3.728425596E-3
8.115514695E1,-8.522115648E-3,7.989482954E-3,-2.130528912E-3
8.140566575E1,1.065264456E-2,-4.793690052E-3,5.326322280E-4
8.165615403E1,-2.130528912E-3,-3.728425596E-3,1.225054078E-2
8.190661179E1,1.597896684E-3,7.989482954E-3,9.587380104E-3
8.215703904E1,5.858954508E-3,3.195793368E-3,-3.142530099E-2
8.240764939E1,-7.989482954E-3,5.326322280E-4,4.261057824E-3
8.265819871E1,2.663161140E-3,1.597896684E-3,-1.597896684E-3
8.290859544E1,2.077265643E-2,6.391586736E-3,1.651159860E-2
8.315896165E1,-1.651159860E-2,1.171790902E-2,9.054748341E-3
8.340944993E1,1.597896684E-3,-5.326322280E-4,-1.597896684E-3
8.366006028E1,-2.876213938E-2,2.130528912E-3,-7.456851192E-3
8.391064011E1,1.651159860E-2,6.391586736E-3,5.326322280E-4
8.416100632E1,-6.924218964E-3,7.456851192E-3,1.171790902E-2
8.441167771E1,3.302319720E-2,1.491370238E-2,1.544633508E-2
8.466219651E1,4.580637068E-2,-2.290318534E-2,1.651159860E-2
8.491268479E1,3.355583176E-2,1.597896684E-3,-5.326322280E-4
8.516305100E1,7.989482954E-3,-5.326322280E-4,2.503371425E-2
8.541353928E1,4.687163606E-2,-9.054748341E-3,2.183792181E-2
8.566414964E1,-2.663161140E-3,-2.024002373E-2,-1.651159860E-2
8.591460740E1,3.089267015E-2,-2.290318534E-2,-2.237055451E-2
8.616506516E1,-3.675162420E-2,2.663161233E-2,-4.261057824E-3
8.641552293E1,-4.367584363E-2,8.522115648E-3,1.065264456E-3
8.666604172E1,2.237055451E-2,1.065264456E-3,-2.130528912E-3
8.691659104E1,-9.054748341E-3,-1.704423130E-2,0.000000000E0
8.716720139E1,1.544633508E-2,2.556634694E-2,1.225054078E-2
8.741772019E1,1.384843793E-2,2.663161140E-3,5.326322280E-4
8.766805588E1,-1.171790902E-2,1.438106969E-2,1.597896684E-3
8.791845261E1,1.065264456E-3,1.118527725E-2,2.130528912E-2
8.816903245E1,-1.757686399E-2,6.391586736E-3,2.929477207E-2
8.841952073E1,-6.924218964E-3,6.924218964E-3,1.065264456E-2
8.866997849E1,-2.130528912E-3,9.054748341E-3,1.757686399E-2
8.892077195E1,3.728425596E-3,2.663161140E-3,5.326322280E-3
8.917135178E1,4.793690052E-3,2.663161140E-3,0.000000000E0
8.942199265E1,-6.391586736E-3,1.065264456E-3,3.195793368E-3
8.967248093E1,-2.663161140E-3,1.810949668E-2,-1.065264456E-3
8.992303025E1,5.326322280E-4,2.663161140E-3,-2.663161140E-3
9.017333543E1,1.651159860E-2,-9.587380104E-3,-8.522115648E-3
9.042400681E1,1.225054078E-2,1.278317347E-2,2.663161140E-3
9.067434251E1,-4.261057824E-3,9.054748341E-3,-5.326322280E-3
9.092489182E1,1.331580617E-2,7.989482954E-3,-2.130528912E-3
9.117522752E1,7.989482954E-3,-3.195793368E-3,-8.522115648E-3
9.142571580E1,-1.171790902E-2,-2.663161140E-3,2.130528912E-3
9.167629563E1,-6.391586736E-3,1.597896684E-3,1.331580617E-2
9.192675339E1,-2.130528912E-3,1.012001187E-2,1.704423130E-2
9.217736375E1,-3.728425596E-3,1.118527725E-2,-1.065264456E-2
9.242788254E1,-8.522115648E-3,-2.077265643E-2,-5.858954508E-3
9.267858445E1,-2.503371425E-2,-7.456851192E-3,-5.326322280E-4
9.292913376E1,1.225054078E-2,2.769687586E-2,1.544633508E-2
9.317971360E1,1.118527725E-2,7.456851192E-3,4.793690052E-3
9.343035447E1,-4.261057824E-3,-1.597896684E-3,6.391586736E-3
9.368072068E1,8.522115648E-3,-9.587380104E-3,-7.989482954E-3
9.393123948E1,9.587380104E-3,2.822950855E-2,3.195793368E-3
9.418184983E1,-7.456851192E-3,1.171790902E-2,4.261057824E-3
9.443246018E1,-1.438106969E-2,-7.456851192E-3,5.326322280E-4
9.468304002E1,-3.728425596E-3,2.130528912E-3,-3.195793368E-3
9.493365037E1,-9.054748341E-3,2.130528912E-3,5.326322280E-4
9.518423020E1,-7.989482954E-3,-1.225054078E-2,1.065264456E-3
9.543459641E1,-1.171790902E-2,-1.757686399E-2,-9.587380104E-3
9.568499314E1,-3.195793368E-3,-1.278317347E-2,-5.858954508E-3
9.593542039E1,-3.195793368E-3,-2.130528912E-3,-4.793690052E-3
9.618603074E1,-2.130528912E-3,2.077265643E-2,1.065264456E-3
9.643664109E1,7.456851192E-3,-9.054748341E-3,-5.858954508E-3
9.668715989E1,5.858954508E-3,-9.587380104E-3,-5.326322280E-4
9.693761765E1,1.597896684E-3,-8.522115648E-3,5.858954508E-3
9.718810593E1,4.261057824E-3,5.326322280E-3,-1.597896684E-3
9.743865525E1,1.331580617E-2,8.522115648E-3,-1.118527725E-2
9.768898829E1,-1.917476021E-2,3.728425596E-3,-4.793690052E-3
9.793959864E1,-7.456851192E-3,-9.587380104E-3,7.989482954E-3
9.819008693E1,-5.858954508E-3,-3.195793368E-3,-1.225054078E-2
9.844063624E1,1.597896684E-3,0.000000000E0,-1.597896684E-3
9.869115504E1,1.544633508E-2,-5.326322280E-3,1.278317347E-2
9.894188746E1,3.728425596E-3,-4.793690052E-3,1.171790902E-2
9.919234523E1,2.130528912E-3,5.858954508E-3,-1.012001187E-2
9.944292506E1,-1.651159860E-2,-2.237055451E-2,5.326322280E-4
9.969344386E1,5.326322280E-3,-1.065264456E-3,-2.290318534E-2
9.994387111E1,2.396845073E-2,0.000000000E0,-9.054748341E-3
1.001943899E2,-3.195793368E-3,-5.326322280E-3,2.130528912E-3
1.004448172E2,-1.118527725E-2,-4.261057824E-3,1.065264456E-2
1.006953360E2,5.326322280E-4,-5.858954508E-3,-4.793690052E-3
1.009459463E2,-1.757686399E-2,-1.970739290E-2,-1.597896591E-2
1.011964346E2,2.343581803E-2,1.704423130E-2,3.195793368E-3
1.014472280E2,1.597896684E-3,9.587380104E-3,4.261057824E-3
1.016975943E2,6.391586736E-3,1.597896684E-3,4.793690052E-3
1.019479299E2,-1.065264456E-2,2.130528912E-3,1.065264456E-3
1.021985403E2,-1.544633508E-2,-5.326322280E-3,1.118527725E-2
1.024491201E2,-1.438106969E-2,-6.391586736E-3,5.326322280E-3
1.026994863E2,-3.195793368E-3,1.278317347E-2,3.195793368E-3
1.029500051E2,-9.587380104E-3,3.728425596E-3,1.597896684E-3
1.032004629E2,-1.065264456E-3,-9.054748341E-3,-1.384843793E-2
1.034509512E2,5.326322280E-3,4.793690052E-3,3.195793368E-3
1.037014395E2,-2.130528912E-3,4.261057824E-3,2.663161140E-3
1.039519583E2,-1.065264456E-3,4.261057824E-3,-1.065264456E-3
1.042025686E2,0.000000000E0,-1.810949668E-2,-1.171790902E-2
1.044531179E2,-1.491370238E-2,1.012001187E-2,7.989482954E-3
1.047037283E2,6.924218964E-3,-4.793690052E-3,-1.065264456E-3
1.049541250E2,-3.142530099E-2,-3.036003746E-2,-1.544633508E-2
1.052046133E2,1.118527725E-2,3.728425596E-3,-4.261057824E-3
1.054552542E2,5.858954508E-3,-5.326322280E-4,6.391586736E-3
1.057056204E2,-1.065264456E-3,9.587380104E-3,1.757686399E-2
1.059562918E2,-3.462109342E-2,-1.491370238E-2,1.438106969E-2
1.062068106E2,-1.384843793E-2,1.065264456E-3,2.929477207E-2
1.064573904E2,-3.728425596E-3,1.171790902E-2,3.408846259E-2
1.067077566E2,-5.858954508E-3,1.225054078E-2,3.249056637E-2
1.069583059E2,-1.065264456E-2,9.054748341E-3,-3.834952042E-2
1.072087637E2,-1.651159860E-2,1.065264456E-2,-2.769687586E-2
1.074590383E2,-1.012001187E-2,2.396845073E-2,-1.384843793E-2
1.077095877E2,6.924218964E-3,1.012001187E-2,2.130528912E-3
1.079599844E2,2.503371425E-2,-3.355583176E-2,-3.089267015E-2
1.082102590E2,1.544633508E-2,-1.118527725E-2,-2.450108156E-2
1.084609304E2,-1.864212751E-2,-2.024002373E-2,1.597896591E-2
1.087112661E2,5.326322280E-4,-1.597896684E-3,-3.621899337E-2
1.089618460E2,6.498113275E-2,5.219795927E-2,6.711166352E-2
1.092123037E2,-8.522115648E-3,-5.326322280E-4,-1.597896684E-3
1.094626699E2,-4.793690052E-3,5.326322280E-4,1.065264456E-2
1.097131887E2,-5.326322280E-4,-3.195793368E-3,-1.491370238E-2
1.099637075E2,-1.065264456E-2,8.522115648E-3,1.065264456E-3
1.102142263E2,-3.195793368E-3,2.663161140E-3,1.278317347E-2
1.104645925E2,6.391586736E-3,5.858954508E-3,3.195793368E-3
1.107150198E2,-1.118527725E-2,4.793690052E-3,1.757686399E-2
1.109654776E2,-1.704423130E-2,-1.864212751E-2,-8.522115648E-3
1.112159658E2,-5.326322280E-4,-8.522115648E-3,1.171790902E-2
1.114666372E2,-4.261057824E-3,-1.597896591E-2,-2.130528912E-3
1.117170950E2,2.130528912E-3,-3.728425596E-3,2.663161140E-3
1.119675222E2,4.793690052E-3,-2.450108156E-2,-6.391586736E-3
1.122178884E2,7.456851192E-3,2.077265643E-2,3.355583176E-2
1.124683767E2,7.456851192E-3,1.278317347E-2,-5.326322280E-4
1.127190481E2,-1.597896684E-3,-8.522115648E-3,-1.118527725E-2
1.129694143E2,-3.621899337E-2,0.000000000E0,-2.663161140E-3
1.132200552E2,7.456851192E-3,-9.054748341E-3,-1.970739290E-2
1.134705740E2,2.663161140E-3,1.225054078E-2,5.326322280E-4
1.137211233E2,1.491370238E-2,3.195793368E-3,0.000000000E0
1.139716421E2,-8.522115648E-3,-1.651159860E-2,-8.522115648E-3
1.142222219E2,-2.077265643E-2,-6.391586736E-3,0.000000000E0
1.144727713E2,7.456851192E-3,1.491370238E-2,-8.522115648E-3
1.147232290E2,-1.970739290E-2,-7.989482954E-3,4.261057824E-3
1.149735952E2,-1.278317347E-2,-1.651159860E-2,7.456851192E-3
1.152242361E2,2.663161140E-3,-4.793690052E-3,-9.054748341E-3
1.154748159E2,8.522115648E-3,1.171790902E-2,-1.597896684E-3
1.157253347E2,1.225054078E-2,2.663161140E-3,-3.195793368E-3
1.159758840E2,-6.391586736E-3,-1.810949668E-2,-1.171790902E-2
1.162262503E2,4.261057824E-3,1.651159860E-2,6.924218964E-3
1.164765860E2,-7.456851192E-3,5.326322280E-4,7.456851192E-3
1.167271353E2,3.728425596E-3,1.597896684E-3,-5.326322280E-3
1.169776541E2,1.065264456E-2,5.326322280E-3,-1.118527725E-2
1.172280508E2,-1.225054078E-2,1.012001187E-2,1.704423130E-2
1.174784780E2,2.130528912E-3,2.663161140E-3,2.556634694E-2
1.177289053E2,-1.065264456E-3,-6.391586736E-3,-5.326322280E-3
1.179795767E2,1.118527725E-2,1.225054078E-2,2.077265643E-2
1.182300344E2,-7.456851192E-3,6.391586736E-3,8.522115648E-3
1.184806448E2,-2.343581803E-2,-3.728425596E-3,-1.651159860E-2
1.187309500E2,0.000000000E0,1.864212751E-2,-2.183792181E-2
1.189813467E2,1.544633508E-2,2.183792181E-2,-5.326322280E-4
1.192319265E2,7.989482954E-3,1.544633508E-2,1.012001187E-2
1.194825674E2,4.261057824E-3,1.438106969E-2,1.065264456E-3
1.197331472E2,-1.597896591E-2,-5.326322280E-3,-3.728425596E-3
1.199836965E2,1.704423130E-2,1.331580617E-2,1.864212751E-2
1.202343374E2,7.456851192E-3,1.704423130E-2,1.012001187E-2
1.204847647E2,9.054748341E-3,1.065264456E-3,1.065264456E-3
1.207351919E2,2.130528912E-3,1.384843793E-2,1.810949668E-2
1.209856192E2,-4.261057824E-3,7.456851192E-3,7.456851192E-3
1.212359854E2,2.077265643E-2,3.195793368E-3,-9.587380104E-3
1.214864736E2,-2.343581803E-2,-2.503371425E-2,1.065264456E-3
1.217371145E2,-5.858954508E-3,-1.118527725E-2,-2.130528912E-3
1.219877859E2,6.924218964E-3,1.065264456E-3,7.456851192E-3
1.222383047E2,-1.065264456E-2,-1.225054078E-2,0.000000000E0
1.224888235E2,-4.261057824E-3,-1.331580617E-2,4.261057824E-3
1.227394644E2,-2.663161140E-3,8.522115648E-3,1.225054078E-2
1.229899221E2,-2.396845073E-2,-3.195793368E-3,9.587380104E-3
1.232401663E2,-1.810949668E-2,-1.970739290E-2,-1.597896684E-3
1.234908682E2,2.663161140E-3,-3.408846259E-2,1.384843793E-2
1.237413259E2,2.396845073E-2,-1.012001187E-2,1.438106969E-2
1.239918447E2,4.154531285E-2,-4.846953228E-2,1.012001187E-2
1.242423635E2,2.343581803E-2,-9.587380104E-3,-7.456851192E-3
1.244928823E2,1.012001187E-2,5.326322280E-4,-8.522115648E-3
1.247434011E2,1.544633508E-2,-8.522115648E-3,-2.237055451E-2
1.249939199E2,-1.597896591E-2,7.989482954E-3,-5.326322280E-4
1.252444693E2,-7.456851192E-3,2.716424316E-2,3.195793368E-3
1.254950796E2,-1.225054078E-2,-3.195793368E-3,-5.326322280E-4
1.257457510E2,3.195793368E-3,6.924218964E-3,1.065264456E-3
1.259963308E2,-1.012001187E-2,1.597896591E-2,1.597896684E-3
1.262468801E2,9.587380104E-3,-5.326322280E-3,-6.924218964E-3
1.264973684E2,-2.663161140E-3,-1.704423130E-2,-5.326322280E-4
1.267478872E2,2.130528912E-3,1.065264456E-3,-7.989482954E-3
1.269983145E2,-1.384843793E-2,0.000000000E0,3.195793368E-3
1.272488333E2,2.130528912E-3,-7.989482954E-3,-8.522115648E-3
1.274992300E2,-9.054748341E-3,-1.438106969E-2,1.012001187E-2
1.277495352E2,-5.326322280E-4,-3.728425596E-3,-4.793690052E-3
1.279999929E2,1.597896684E-3,1.065264456E-3,-4.793690052E-3
1.282504763E2,-1.438106969E-2,-2.237055451E-2,-1.438106969E-2
1.285009951E2,-5.858954508E-3,-2.663161140E-3,1.757686399E-2
1.287516054E2,-1.651159860E-2,-3.249056637E-2,-4.261057824E-3
1.290021242E2,7.456851192E-3,6.391586736E-3,2.077265643E-2
1.292525820E2,8.522115648E-3,0.000000000E0,4.793690052E-3
1.295029177E2,1.171790902E-2,6.924218964E-3,1.970739290E-2
1.297533754E2,1.810949668E-2,2.450108156E-2,-1.065264456E-3
1.300039858E2,-1.331580617E-2,-7.989482954E-3,-7.989482954E-3
1.302545962E2,-7.456851192E-3,-1.065264456E-2,-7.989482954E-3
1.305049624E2,-1.438106969E-2,3.195793368E-3,-2.663161140E-3
1.307553286E2,6.391586736E-3,-4.261057824E-3,-1.065264456E-3
1.310057863E2,1.597896684E-3,-4.793690052E-3,-6.924218964E-3
1.312562441E2,9.587380104E-3,-7.989482954E-3,-1.544633508E-2
1.315068850E2,-4.261057824E-3,-3.728425596E-3,-1.065264456E-2
1.317573732E2,-6.924218964E-3,-1.704423130E-2,-1.065264456E-3
1.320079226E2,1.597896684E-3,-1.597896684E-3,-9.054748341E-3
1.322585024E2,8.522115648E-3,1.597896591E-2,-1.065264456E-2
1.325090822E2,2.130528912E-3,2.822950855E-2,-1.597896591E-2
1.327595705E2,-2.503371425E-2,-2.450108156E-2,-1.065264456E-2
1.330100283E2,2.876213938E-2,4.420847446E-2,1.597896684E-3
1.332605776E2,2.130528912E-3,1.118527725E-2,-3.195793368E-3
1.335112490E2,-1.171790902E-2,9.587380104E-3,-5.326322280E-4
1.337616457E2,-1.331580617E-2,-7.456851192E-3,-1.597896591E-2
1.340122866E2,-4.261057824E-3,1.278317347E-2,0.000000000E0
1.342627749E2,4.261057824E-3,5.326322280E-4,7.456851192E-3
1.345132631E2,-1.597896684E-3,6.391586736E-3,0.000000000E0
1.347637514E2,7.989482954E-3,-1.012001187E-2,3.195793368E-3
1.350142702E2,-1.597896684E-3,-2.183792181E-2,9.054748341E-3
1.352647280E2,1.438106969E-2,-4.261057824E-3,2.663161140E-3
1.355152468E2,1.438106969E-2,2.024002373E-2,1.651159860E-2
1.357656740E2,5.858954508E-3,-5.858954508E-3,-9.587380104E-3
1.360162844E2,-1.651159860E-2,-1.704423130E-2,-2.237055451E-2
1.362665285E2,-2.343581803E-2,3.728425503E-2,1.597896591E-2
1.365171084E2,-1.491370238E-2,1.065264456E-2,-1.065264456E-3
1.367675356E2,-2.769687586E-2,0.000000000E0,3.728425596E-3
1.370179934E2,6.391586736E-3,-8.522115648E-3,-2.663161233E-2
1.372685122E2,-1.438106969E-2,-7.456851192E-3,7.456851192E-3
1.375188784E2,8.522115648E-3,1.864212751E-2,2.290318534E-2
1.377693361E2,6.391586736E-3,4.793690052E-3,1.278317347E-2
1.380196718E2,1.065264456E-3,6.391586736E-3,-1.065264456E-3
1.382700991E2,-3.728425596E-3,-2.663161140E-3,2.130528912E-3
1.385206179E2,-1.118527725E-2,-6.924218964E-3,-1.171790902E-2
1.387710451E2,7.456851192E-3,5.858954508E-3,6.391586736E-3
1.390215334E2,-9.587380104E-3,-3.195793368E-3,-5.326322280E-4
1.392719301E2,1.491370238E-2,-6.924218964E-3,1.704423130E-2
1.395225710E2,-5.326322280E-3,-4.261057824E-3,6.924218964E-3
1.397729982E2,-5.326322280E-3,-4.793690052E-3,5.858954508E-3
1.400235476E2,1.331580617E-2,-3.728425596E-3,-8.522115648E-3
1.402741579E2,-1.331580617E-2,6.924218964E-3,-2.290318534E-2
1.405247988E2,-1.491370238E-2,2.183792181E-2,4.793690052E-3
1.407752871E2,0.000000000E0,1.438106969E-2,-1.651159860E-2
1.410258364E2,-3.728425596E-3,-6.391586736E-3,-2.663161140E-3
1.412761721E2,-9.587380104E-3,6.391586736E-3,1.544633508E-2
1.415266298E2,6.391586736E-3,-5.326322280E-4,-4.261057824E-3
1.417770266E2,9.054748341E-3,4.793690052E-3,-3.728425596E-3
1.420276980E2,-1.012001187E-2,-5.858954508E-3,5.326322280E-3
1.422781557E2,-1.384843793E-2,-4.793690052E-3,-1.704423130E-2
1.425287050E2,2.077265643E-2,1.065264456E-2,-5.858954508E-3
1.427792849E2,5.326322280E-4,1.597896684E-3,0.000000000E0
1.430298952E2,-1.065264456E-3,-6.391586736E-3,3.195793368E-3
1.432804445E2,9.587380104E-3,-4.261057824E-3,1.597896684E-3
1.435309939E2,1.225054078E-2,-1.065264456E-2,9.054748341E-3
1.437814821E2,-1.384843793E-2,-9.587380104E-3,1.544633508E-2
1.440319704E2,0.000000000E0,-2.663161140E-3,8.522115648E-3
1.442823977E2,1.171790902E-2,-2.663161233E-2,1.331580617E-2
1.445327944E2,3.834952042E-2,-2.077265643E-2,2.769687586E-2
1.447832827E2,8.415589482E-2,2.396845073E-2,1.810949668E-2
1.450339235E2,-1.118527725E-2,1.917476021E-2,4.793690052E-3
1.452845339E2,1.970739290E-2,3.781688958E-2,2.663161140E-3
1.455349306E2,6.391586736E-3,3.036003746E-2,1.917476021E-2
1.457853884E2,-7.190535218E-2,2.024002373E-2,-6.924218964E-3
1.460360598E2,-1.970739290E-2,6.391586736E-3,-3.355583176E-2
1.462866701E2,-8.948221803E-2,-1.917476021E-2,-2.130528912E-2
1.465372805E2,1.491370238E-2,-3.089267015E-2,-5.805691332E-2
1.467878298E2,-2.130528912E-3,-3.462109342E-2,-2.556634694E-2
1.470383486E2,2.130528912E-2,1.544633508E-2,-2.929477207E-2
1.472888064E2,1.704423130E-2,2.183792181E-2,-1.544633508E-2
1.475393557E2,3.142530099E-2,-1.065264456E-2,-7.456851192E-3
1.477898745E2,1.331580617E-2,1.171790902E-2,-2.929477207E-2
1.480406374E2,-1.278317347E-2,-1.065264456E-2,1.225054078E-2
1.482909731E2,1.384843793E-2,1.544633508E-2,4.793690052E-3
1.485415529E2,-4.261057824E-3,-2.077265643E-2,-2.556634694E-2
1.487922243E2,-5.326322280E-3,-2.130528912E-3,1.331580617E-2
1.490427736E2,1.544633508E-2,1.864212751E-2,1.065264456E-2
1.492931399E2,1.597896684E-3,-2.130528912E-2,1.597896591E-2
1.495436892E2,1.171790902E-2,-1.012001187E-2,-1.810949668E-2
1.497939943E2,1.118527725E-2,2.663161233E-2,4.261057824E-3
1.500443300E2,-3.195793182E-2,-1.278317347E-2,-1.171790902E-2
1.502948488E2,8.522115648E-3,2.343581803E-2,-7.456851192E-3
1.505453371E2,5.858954508E-3,7.456851192E-3,4.793690052E-3
1.507957338E2,-1.065264456E-3,6.391586736E-3,1.544633508E-2
1.510463747E2,1.757686399E-2,1.225054078E-2,1.065264456E-2
1.512970156E2,-1.917476021E-2,-1.331580617E-2,1.065264456E-3
1.515475954E2,2.130528912E-3,2.396845073E-2,1.917476021E-2
1.517981447E2,-1.384843793E-2,2.663161140E-3,1.331580617E-2
1.520485720E2,-5.858954508E-3,-2.769687586E-2,5.326322280E-4
1.522991213E2,-1.597896684E-3,1.065264456E-2,-1.651159860E-2
1.525495485E2,-4.261057824E-3,-3.728425596E-3,-7.456851192E-3
1.528000063E2,-1.012001187E-2,-1.118527725E-2,-1.065264456E-3
1.530504030E2,-2.130528912E-3,2.130528912E-3,-7.989482954E-3
1.533010744E2,-9.587380104E-3,-5.326322280E-4,-1.278317347E-2
1.535515932E2,-1.012001187E-2,-5.326322280E-3,-1.065264456E-3
1.538019289E2,-2.396845073E-2,-1.491370238E-2,-9.587380104E-3
1.540524477E2,1.331580617E-2,2.077265643E-2,1.384843793E-2
1.543028444E2,-5.858954508E-3,3.728425596E-3,9.054748341E-3
1.545532412E2,4.793690052E-3,3.302319720E-2,4.793690052E-3
1.548038210E2,1.917476021E-2,1.331580617E-2,6.391586736E-3
1.550543093E2,-4.793690052E-3,-6.391586736E-3,-3.195793368E-3
1.553048586E2,-1.651159860E-2,-5.326322280E-3,1.278317347E-2
1.555554384E2,-1.331580617E-2,6.924218964E-3,1.225054078E-2
1.558059267E2,7.989482954E-3,6.924218964E-3,5.326322280E-3
1.560564150E2,-1.704423130E-2,-5.326322280E-4,-1.597896591E-2
1.563067812E2,5.326322280E-4,-1.491370238E-2,2.130528912E-3
1.565572085E2,2.663161140E-3,-1.065264456E-3,1.757686399E-2
1.568075136E2,2.663161140E-3,1.917476021E-2,5.858954508E-3
1.570580019E2,1.331580617E-2,3.195793368E-3,-5.326322280E-4
1.573083986E2,-5.326322280E-4,-9.587380104E-3,-5.858954508E-3
1.575589174E2,-1.757686399E-2,-3.728425596E-3,-8.522115648E-3
1.578094362E2,1.225054078E-2,8.522115648E-3,5.326322280E-3
1.580600161E2,-1.065264456E-2,-1.065264456E-2,4.687163606E-2
1.583104128E2,-5.326322280E-3,1.065264456E-2,2.929477207E-2
1.585609621E2,-1.171790902E-2,0.000000000E0,1.704423130E-2
1.588112978E2,-5.326322280E-3,1.118527725E-2,3.728425503E-2
1.590617556E2,-6.924218964E-3,2.396845073E-2,-2.290318534E-2
1.593122133E2,-3.675162420E-2,-3.834952042E-2,5.539375171E-2
1.595627016E2,-9.054748341E-3,-1.438106969E-2,-3.195793368E-3
1.598130678E2,3.249056637E-2,-3.142530099E-2,-1.757686399E-2
1.600636782E2,-1.278317347E-2,9.054748341E-3,2.609897964E-2
1.603141359E2,3.355583176E-2,4.740426689E-2,-2.663161233E-2
1.605645327E2,7.456851192E-3,-2.503371425E-2,-3.408846259E-2
1.608151430E2,-1.225054078E-2,4.261057824E-3,-2.130528912E-2
1.610655568E2,7.456851192E-3,2.663161140E-3,3.142530099E-2
1.613160756E2,4.793690052E-3,-1.438106969E-2,-1.012001187E-2
1.615666554E2,8.522115648E-3,9.587380104E-3,7.989482954E-3
1.618171132E2,1.278317347E-2,-9.587380104E-3,-3.515372798E-2
1.620676625E2,5.326322280E-3,0.000000000E0,-5.858954508E-3
1.623179982E2,-1.384843793E-2,-6.391586736E-3,1.065264456E-3
1.625684865E2,3.249056637E-2,1.970739290E-2,1.810949668E-2
1.628191884E2,2.716424316E-2,1.118527725E-2,-5.858954508E-3
1.630697682E2,-5.858954508E-3,2.663161140E-3,4.261057824E-3
1.633202870E2,-3.355583176E-2,-9.587380104E-3,-3.728425596E-3
1.635709584E2,7.989482954E-3,-5.326322280E-3,3.675162420E-2
1.638215688E2,1.065264456E-2,1.757686399E-2,7.456851192E-3
1.640720876E2,4.261057824E-3,-7.989482954E-3,1.225054078E-2
1.643225148E2,1.331580617E-2,-5.858954508E-3,8.522115648E-3
1.645729421E2,7.456851192E-3,4.793690052E-3,-4.261057824E-3
1.648234303E2,-2.396845073E-2,1.810949668E-2,8.522115648E-3
1.650737355E2,1.331580617E-2,1.810949668E-2,1.597896684E-3
1.653241017E2,1.225054078E-2,-2.663161140E-3,-3.728425503E-2
1.655745290E2,8.522115648E-3,1.331580617E-2,-6.391586736E-3
1.658251698E2,-7.989482954E-3,1.597896591E-2,5.858954508E-3
1.660757802E2,-1.438106969E-2,2.130528912E-3,-5.858954508E-3
1.663262990E2,-6.924218964E-3,-2.343581803E-2,-1.171790902E-2
1.665769094E2,2.130528912E-3,1.864212751E-2,3.195793368E-3
1.668273061E2,4.048004746E-2,-6.924218964E-3,-5.486112088E-2
1.670778249E2,-6.924218964E-3,2.876213938E-2,2.130528912E-2
1.673283437E2,-1.810949668E-2,2.663161233E-2,3.728425596E-3
1.675787099E2,1.544633508E-2,-3.728425503E-2,-1.065264456E-2
1.678292592E2,0.000000000E0,-1.544633508E-2,2.822950855E-2
1.680799306E2,-3.195793368E-3,1.704423130E-2,9.587380104E-3
1.683303578E2,1.597896684E-3,1.544633508E-2,5.326322280E-3
1.685809377E2,8.522115648E-3,-1.704423130E-2,-7.456851192E-3
1.688312734E2,-1.171790902E-2,-6.391586736E-3,4.261057824E-3
1.690817616E2,3.621899337E-2,3.142530099E-2,6.391586736E-3
1.693322804E2,-5.858954508E-3,-6.391586736E-3,1.278317347E-2
1.695827687E2,-2.130528912E-3,-1.384843793E-2,4.261057824E-3
1.698332265E2,-2.183792181E-2,-1.438106969E-2,3.195793368E-3
1.700837453E2,1.864212751E-2,2.450108156E-2,1.171790902E-2
1.703342031E2,2.130528912E-2,-5.326322280E-3,1.970739290E-2
1.705847829E2,1.491370238E-2,1.651159860E-2,0.000000000E0
1.708352407E2,-2.024002373E-2,-8.522115648E-3,-2.024002373E-2
1.710858510E2,-9.054748341E-3,-2.077265643E-2,-8.522115648E-3
1.713363088E2,3.781688958E-2,-9.054748341E-3,-2.183792181E-2
1.715869496E2,1.065264456E-3,-5.858954508E-3,0.000000000E0
1.718373158E2,1.065264456E-2,-9.587380104E-3,-1.810949668E-2
1.720878652E2,-1.864212751E-2,-3.728425596E-3,5.326322280E-4
1.723383840E2,-6.018744037E-2,-4.154531285E-2,-2.876213938E-2
1.725888417E2,5.858954508E-3,-1.331580617E-2,-2.024002373E-2
1.728392385E2,-3.249056637E-2,-1.278317347E-2,-1.491370238E-2
1.730897573E2,1.491370238E-2,5.326322280E-4,-6.924218964E-3
1.733402455E2,-1.118527725E-2,9.054748341E-3,7.989482954E-3
1.735908559E2,-6.924218964E-3,1.384843793E-2,2.077265643E-2
1.738412831E2,-1.065264456E-3,-1.171790902E-2,-1.651159860E-2
1.740918019E2,-1.597896591E-2,-1.438106969E-2,-4.793690052E-3
1.743421681E2,8.522115648E-3,-5.858954508E-3,3.728425596E-3
1.745927480E2,-1.810949668E-2,5.858954508E-3,-9.054748341E-3
1.748435109E2,-1.065264456E-3,1.065264456E-3,-1.065264456E-2
1.750939992E2,-1.384843793E-2,-7.989482954E-3,-1.171790902E-2
1.753446095E2,-3.568635881E-2,-3.302319720E-2,-2.663161233E-2
1.755951283E2,8.522115648E-3,7.989482954E-3,2.663161140E-3
1.758457082E2,2.077265643E-2,1.917476021E-2,2.450108156E-2
1.760962270E2,-2.237055451E-2,1.065264456E-3,1.597896591E-2
1.763466237E2,1.438106969E-2,-3.728425596E-3,1.757686399E-2
1.765972035E2,-9.587380104E-3,-2.343581803E-2,1.065264456E-3
1.768477529E2,4.793690052E-3,-1.970739290E-2,1.012001187E-2
1.770982411E2,1.544633508E-2,1.544633508E-2,2.663161140E-3
1.773488820E2,1.065264456E-2,1.757686399E-2,9.587380104E-3
1.775993093E2,1.757686399E-2,5.858954508E-3,0.000000000E0
1.778497060E2,-1.491370238E-2,-6.924218964E-3,-6.924218964E-3
1.781000417E2,-6.391586736E-3,1.438106969E-2,-2.077265643E-2
1.783506825E2,-3.142530099E-2,-2.130528912E-3,-1.384843793E-2
1.786010793E2,1.491370238E-2,2.450108156E-2,-1.065264456E-3
1.788515981E2,1.171790902E-2,2.024002373E-2,1.544633508E-2
1.791020864E2,3.195793368E-3,-1.651159860E-2,-1.171790902E-2
1.793524526E2,-5.858954508E-3,1.597896684E-3,-2.130528912E-3
1.796030934E2,-1.651159860E-2,-9.587380104E-3,-6.924218964E-3
1.798537343E2,2.663161140E-3,2.130528912E-3,-7.456851192E-3
1.801041921E2,-4.261057824E-3,3.195793368E-3,-2.663161140E-3
1.803547109E2,6.391586736E-3,2.290318534E-2,1.438106969E-2
1.806050160E2,7.989482954E-3,1.864212751E-2,9.587380104E-3
1.808555348E2,-5.858954508E-3,-1.864212751E-2,1.491370238E-2
1.811059011E2,6.924218964E-3,5.326322280E-4,-9.587380104E-3
1.813564198E2,1.171790902E-2,-9.587380104E-3,-1.864212751E-2
1.816070302E2,0.000000000E0,7.456851192E-3,1.438106969E-2
1.818575490E2,-1.384843793E-2,-1.597896591E-2,-3.195793368E-3
1.821081288E2,9.587380104E-3,1.438106969E-2,-8.522115648E-3
1.823585256E2,-1.810949668E-2,-9.054748341E-3,-7.456851192E-3
1.826089833E2,1.757686399E-2,1.065264456E-2,3.195793368E-3
1.828594411E2,-9.054748341E-3,6.391586736E-3,1.012001187E-2
1.831098683E2,-1.544633508E-2,5.326322280E-4,5.326322280E-3
1.833602040E2,6.391586736E-3,1.491370238E-2,1.597896591E-2
1.836105702E2,2.077265643E-2,-3.195793368E-3,3.089267015E-2
1.838609975E2,-3.728425596E-3,4.793690052E-3,3.195793182E-2
1.841116078E2,1.384843793E-2,-5.326322280E-4,1.970739290E-2
1.843621266E2,5.326322280E-4,3.728425596E-3,-6.924218964E-3
1.846126454E2,-1.065264456E-3,1.438106969E-2,-1.810949668E-2
1.848630727E2,-9.587380104E-3,5.326322280E-3,2.024002373E-2
1.851136830E2,9.054748341E-3,1.810949668E-2,-8.522115648E-3
1.853642629E2,2.663161140E-3,-9.587380104E-3,-1.012001187E-2
1.856149648E2,7.989482954E-3,-1.597896684E-3,-5.858954508E-3
1.858654531E2,-1.597896591E-2,-2.396845073E-2,-9.587380104E-3
1.861160024E2,-1.597896591E-2,-3.728425596E-3,-4.793690052E-3
1.863665822E2,-2.130528912E-3,-1.012001187E-2,-2.290318534E-2
1.866171315E2,-5.326322280E-4,1.331580617E-2,-2.130528912E-3
1.868676198E2,1.012001187E-2,2.024002373E-2,1.225054078E-2
1.871180470E2,2.077265643E-2,4.793690052E-3,1.438106969E-2
1.873687795E2,-3.728425596E-3,4.261057824E-3,-1.597896684E-3
1.876194203E2,1.012001187E-2,-7.456851192E-3,-4.261057824E-3
1.878699697E2,1.384843793E-2,4.793690052E-3,4.793690052E-3
1.881206410E2,-9.587380104E-3,-8.522115648E-3,-7.989482954E-3
1.883711904E2,1.491370238E-2,-4.793690052E-3,-3.728425596E-3
1.886216786E2,-1.597896591E-2,-9.587380104E-3,-7.456851192E-3
1.888721059E2,1.597896591E-2,1.384843793E-2,6.391586736E-3
1.891226552E2,3.195793368E-3,1.491370238E-2,-1.065264456E-3
1.893731435E2,5.858954508E-3,1.278317347E-2,3.728425596E-3
1.896236012E2,8.522115648E-3,9.587380104E-3,2.663161140E-3
1.898741200E2,-5.326322280E-3,-4.261057824E-3,-1.065264456E-2
1.901245778E2,1.065264456E-3,9.587380104E-3,7.989482954E-3
1.903751271E2,1.331580617E-2,6.391586736E-3,1.384843793E-2
1.906257070E2,1.597896591E-2,8.522115648E-3,1.012001187E-2
1.908763478E2,1.065264456E-3,4.793690052E-3,3.195793368E-3
1.911269277E2,-6.391586736E-3,-1.065264456E-3,5.858954508E-3
1.913772328E2,-2.663161140E-3,9.587380104E-3,3.195793368E-3
1.916276244E2,-9.587380104E-3,-1.491370238E-2,-7.989482954E-3
1.918778400E2,-2.183792181E-2,-2.769687586E-2,7.456851192E-3
1.921283893E2,0.000000000E0,-9.054748341E-3,1.704423130E-2
1.923788165E2,-1.491370238E-2,-1.278317347E-2,2.609897964E-2
1.926293963E2,5.858954508E-3,0.000000000E0,1.544633508E-2
1.928799762E2,1.065264456E-2,1.864212751E-2,-2.556634694E-2
1.931304950E2,-5.858954508E-3,2.556634694E-2,-4.793690052E-3
1.933810443E2,-2.183792181E-2,-7.456851192E-3,-1.864212751E-2
1.936317157E2,-1.065264456E-3,-1.384843793E-2,-1.491370238E-2
1.938822650E2,-8.522115648E-3,3.195793368E-3,2.024002373E-2
1.941327838E2,1.065264456E-2,1.225054078E-2,2.130528912E-3
1.943833331E2,1.597896684E-3,-2.663161140E-3,-1.065264456E-2
1.946338519E2,-3.728425596E-3,-1.118527725E-2,2.130528912E-3
1.948844012E2,-1.864212751E-2,-2.183792181E-2,-4.261057824E-3
1.951351337E2,0.000000000E0,5.326322280E-4,-1.597896591E-2
1.953856219E2,-9.587380104E-3,-7.989482954E-3,-3.728425596E-3
1.956361407E2,-7.989482954E-3,1.065264456E-3,-2.663161140E-3
1.958865069E2,2.663161233E-2,2.024002373E-2,1.384843793E-2
1.961370257E2,6.391586736E-3,1.384843793E-2,-3.195793368E-3
1.963873920E2,0.000000000E0,2.663161140E-3,-6.391586736E-3
1.966379413E2,1.012001187E-2,-1.597896684E-3,6.391586736E-3
1.968885516E2,-1.544633508E-2,1.065264456E-3,-8.522115648E-3
1.971390704E2,6.924218964E-3,-3.728425596E-3,-6.391586736E-3
1.973894061E2,2.024002373E-2,1.810949668E-2,6.924218964E-3
1.976399249E2,2.130528912E-3,-5.326322280E-4,-6.391586736E-3
1.978902606E2,5.326322280E-4,1.651159860E-2,1.065264456E-3
1.981410541E2,-1.118527725E-2,-1.012001187E-2,9.054748341E-3
1.983915729E2,-7.989482954E-3,-2.130528912E-3,1.597896591E-2
1.986420611E2,5.326322280E-3,1.012001187E-2,-6.924218964E-3
1.988925189E2,3.195793368E-3,-4.793690052E-3,1.970739290E-2
1.991430987E2,5.326322280E-4,2.183792181E-2,0.000000000E0
1.993936175E2,-2.024002373E-2,1.704423130E-2,-2.024002373E-2
1.996441669E2,1.171790902E-2,3.568635881E-2,-1.118527725E-2
1.998945636E2,-1.225054078E-2,-3.195793368E-3,2.130528912E-3
2.001450519E2,1.704423130E-2,9.587380104E-3,4.793690052E-3
2.003955401E2,1.225054078E-2,3.195793368E-3,-2.663161140E-3
2.006460284E2,-8.522115648E-3,-9.587380104E-3,5.326322280E-4
2.008965167E2,-9.054748341E-3,2.663161140E-3,-1.331580617E-2
2.011470965E2,3.728425596E-3,-1.065264456E-3,4.261057824E-3
2.013975238E2,0.000000000E0,-2.663161140E-3,4.793690052E-3
2.016481036E2,6.924218964E-3,7.989482954E-3,2.663161140E-3
2.018987445E2,8.522115648E-3,-1.544633508E-2,-3.195793368E-3
2.021493854E2,1.597896591E-2,3.195793368E-3,-9.587380104E-3
2.023998431E2,1.331580617E-2,-1.012001187E-2,1.065264456E-3
2.026504840E2,6.391586736E-3,-2.343581803E-2,2.130528912E-3
2.029008807E2,5.858954508E-3,-3.728425596E-3,2.024002373E-2
2.031513995E2,1.810949668E-2,-5.326322280E-3,1.225054078E-2
2.034018573E2,1.331580617E-2,8.522115648E-3,1.651159860E-2
2.036523456E2,1.065264456E-2,-1.065264456E-3,-5.326322280E-4
2.039028949E2,5.326322280E-3,-4.261057824E-3,-1.704423130E-2
2.041534442E2,-1.864212751E-2,-7.456851192E-3,-2.503371425E-2
2.044039325E2,-2.503371425E-2,1.438106969E-2,-4.261057824E-3
2.046543902E2,-2.716424316E-2,5.326322280E-3,1.704423130E-2
2.049049701E2,-3.195793368E-3,-4.793690052E-3,-7.989482954E-3
2.051555804E2,-6.924218964E-3,0.000000000E0,2.130528912E-3
2.054060382E2,5.858954508E-3,-1.012001187E-2,-4.261057824E-3
2.056566791E2,1.278317347E-2,-2.130528912E-3,-1.065264456E-3
2.059072894E2,3.142530099E-2,1.171790902E-2,4.261057824E-3
2.061578387E2,1.278317347E-2,-9.587380104E-3,-1.597896684E-3
2.064082660E2,8.522115648E-3,-2.663161140E-3,-1.118527725E-2
2.066587543E2,-9.054748341E-3,-7.456851192E-3,2.130528912E-3
2.069093646E2,1.757686399E-2,8.522115648E-3,-1.065264456E-3
2.071599750E2,7.456851192E-3,5.326322280E-3,-6.924218964E-3
2.074106158E2,0.000000000E0,-1.384843793E-2,1.544633508E-2
2.076612262E2,-4.261057824E-3,-1.438106969E-2,1.225054078E-2
2.079116534E2,2.929477207E-2,7.456851192E-3,6.391586736E-3
2.081622333E2,1.331580617E-2,1.384843793E-2,-1.597896684E-3
2.084127521E2,-9.587380104E-3,-1.225054078E-2,-8.522115648E-3
2.086633319E2,-3.728425596E-3,-1.810949668E-2,-3.355583176E-2
2.089136371E2,1.544633508E-2,1.171790902E-2,-1.917476021E-2
2.091640643E2,-2.716424316E-2,2.130528912E-3,5.326322280E-4
2.094147052E2,-1.012001187E-2,1.012001187E-2,1.970739290E-2
2.096653461E2,-7.989482954E-3,-4.793690052E-3,-9.587380104E-3
2.099157123E2,-4.261057824E-3,3.195793368E-3,1.438106969E-2
2.101662616E2,-1.065264456E-2,-1.331580617E-2,-1.065264456E-2
2.104169330E2,1.384843793E-2,1.970739290E-2,1.651159860E-2
2.106675433E2,4.261057824E-3,1.065264456E-2,-1.065264456E-3
2.109179706E2,-1.065264456E-3,0.000000000E0,-2.663161140E-3
2.111683673E2,1.171790902E-2,-2.663161140E-3,1.597896684E-3
2.114188556E2,2.663161140E-3,-1.331580617E-2,-1.384843793E-2
2.116693133E2,-2.663161140E-3,5.326322280E-3,-1.065264456E-3
2.119196490E2,-1.384843793E-2,-5.858954508E-3,-7.456851192E-3
2.121700763E2,-3.195793368E-3,-5.858954508E-3,1.438106969E-2
2.124206561E2,6.391586736E-3,1.118527725E-2,-5.858954508E-3
2.126712665E2,2.663161140E-3,3.728425596E-3,4.261057824E-3
2.129217547E2,-1.065264456E-2,-1.065264456E-2,-1.331580617E-2
2.131723346E2,2.130528912E-3,3.195793368E-3,-2.130528912E-2
2.134228229E2,-6.924218964E-3,-2.663161140E-3,-2.290318534E-2
2.136734027E2,-9.054748341E-3,1.438106969E-2,1.331580617E-2
2.139237689E2,4.793690052E-3,-5.858954508E-3,-4.793690052E-3
2.141743487E2,2.663161140E-3,-8.522115648E-3,2.663161140E-3
2.144248370E2,3.195793368E-3,1.278317347E-2,5.858954508E-3
2.146752032E2,-4.261057824E-3,-8.522115648E-3,-5.326322280E-3
2.149256915E2,-3.195793368E-3,1.384843793E-2,7.989482954E-3
2.151762408E2,4.261057824E-3,-3.408846259E-2,-1.065264456E-3
2.154266681E2,1.331580617E-2,1.970739290E-2,4.261057824E-3
2.156771869E2,-9.054748341E-3,-9.587380104E-3,0.000000000E0
2.159277057E2,2.663161140E-3,-7.989482954E-3,1.171790902E-2
2.161781024E2,1.278317347E-2,1.757686399E-2,4.261057824E-3
2.164287738E2,6.924218964E-3,-1.597896684E-3,9.587380104E-3
2.166793841E2,3.408846259E-2,1.757686399E-2,1.438106969E-2
2.169299640E2,2.237055451E-2,4.261057824E-3,1.864212751E-2
2.171805133E2,1.810949668E-2,-2.130528912E-3,5.326322280E-4
2.174310931E2,1.384843793E-2,7.989482954E-3,-4.261057824E-3
2.176814899E2,-1.171790902E-2,2.130528912E-3,-1.491370238E-2
2.179320392E2,-1.384843793E-2,2.503371425E-2,-1.065264456E-2
2.181824359E2,-3.036003746E-2,-1.012001187E-2,6.391586736E-3
2.184328021E2,-2.130528912E-3,2.929477207E-2,7.456851192E-3
2.186833514E2,-1.331580617E-2,-2.077265643E-2,-4.261057824E-3
2.189337482E2,-6.924218964E-3,-1.970739290E-2,-1.118527725E-2
2.191844195E2,4.793690052E-3,3.195793368E-3,6.391586736E-3
2.194348773E2,6.924218964E-3,-1.225054078E-2,1.012001187E-2
2.196854877E2,1.171790902E-2,5.326322280E-3,5.326322280E-3
2.199360980E2,-1.065264456E-3,-2.609897964E-2,3.728425596E-3
2.201865253E2,7.989482954E-3,-1.704423130E-2,-4.793690052E-3
2.204371051E2,-1.012001187E-2,-1.491370238E-2,2.130528912E-3
2.206879596E2,-4.261057824E-3,-7.989482954E-3,6.924218964E-3
2.209383868E2,-6.391586736E-3,1.065264456E-3,-9.587380104E-3
2.211888751E2,1.597896591E-2,1.810949668E-2,0.000000000E0
2.214394244E2,4.261057824E-3,-5.326322280E-3,-1.544633508E-2
2.216898212E2,-2.503371425E-2,-2.503371425E-2,-3.195793368E-3
2.219403400E2,1.917476021E-2,2.822950855E-2,1.171790902E-2
2.221908282E2,1.491370238E-2,6.924218964E-3,-1.065264456E-3
2.224412350E2,-1.597896684E-3,1.970739290E-2,-3.728425596E-3
2.226916928E2,-2.556634694E-2,-2.130528912E-3,-1.544633508E-2
2.229421811E2,-1.171790902E-2,5.326322280E-4,-7.456851192E-3
2.231926083E2,-1.065264456E-2,-5.326322280E-3,5.326322280E-3
2.234430966E2,-1.970739290E-2,-3.195793368E-3,2.130528912E-3
2.236937070E2,9.054748341E-3,-6.924218964E-3,6.391586736E-3
2.239441037E2,1.491370238E-2,-3.195793368E-3,-9.054748341E-3
2.241946225E2,-1.065264456E-2,-1.225054078E-2,-4.793690052E-3
2.244450497E2,1.384843793E-2,-5.326322280E-4,1.065264456E-3
2.246956296E2,2.130528912E-3,4.261057824E-3,-2.663161140E-3
2.249462094E2,-1.171790902E-2,1.065264456E-3,-1.597896684E-3
2.251968503E2,4.261057824E-3,3.195793368E-3,1.065264456E-3
2.254472470E2,-9.054748341E-3,-6.391586736E-3,-1.597896591E-2
2.256978574E2,5.326322280E-4,1.171790902E-2,2.450108156E-2
2.259484372E2,3.249056637E-2,-5.326322280E-3,1.704423130E-2
2.261989865E2,2.077265643E-2,-1.278317347E-2,9.587380104E-3
2.264494748E2,9.054748341E-3,-2.183792181E-2,1.491370238E-2
2.267002377E2,6.924218964E-3,-2.237055451E-2,-4.261057824E-3
2.269506345E2,-5.326322280E-4,4.793690052E-3,-6.391586736E-3
2.272013058E2,2.663161140E-3,-1.065264456E-3,-1.065264456E-2
2.274517331E2,-1.012001187E-2,3.142530099E-2,4.793690052E-3
2.277022824E2,-1.491370238E-2,1.012001187E-2,1.065264456E-3
2.279528317E2,1.597896684E-3,1.651159860E-2,3.728425596E-3
2.282034116E2,-2.609897964E-2,5.326322280E-4,-1.012001187E-2
2.284540829E2,2.130528912E-3,-5.858954508E-3,3.195793368E-3
2.287045407E2,2.396845073E-2,2.929477207E-2,1.491370238E-2
2.289549374E2,1.065264456E-3,-7.456851192E-3,1.225054078E-2
2.292055478E2,-1.065264456E-3,1.118527725E-2,9.054748341E-3
2.294560971E2,5.326322280E-3,-5.326322280E-4,0.000000000E0
2.297066159E2,1.012001187E-2,4.793690052E-3,9.587380104E-3
2.299571347E2,-5.858954508E-3,-5.326322280E-3,1.597896684E-3
2.302076535E2,2.183792181E-2,-5.326322280E-4,-7.456851192E-3
2.304582333E2,-1.118527725E-2,-1.171790902E-2,-9.587380104E-3
2.307089658E2,1.065264456E-2,-1.491370238E-2,9.054748341E-3
2.309595761E2,2.290318534E-2,2.290318534E-2,1.012001187E-2
2.312100949E2,8.522115648E-3,-1.171790902E-2,-7.989482954E-3
2.314605832E2,-6.391586736E-3,1.171790902E-2,-2.450108156E-2
2.317110715E2,1.597896684E-3,3.728425596E-3,-1.065264456E-3
2.319614682E2,-2.663161140E-3,1.970739290E-2,2.663161140E-3
2.322121091E2,1.544633508E-2,-2.663161140E-3,0.000000000E0
2.324624448E2,5.326322280E-4,-8.522115648E-3,-9.587380104E-3
2.327129636E2,-1.491370238E-2,-4.261057824E-3,-1.597896684E-3
2.329633603E2,-1.065264456E-3,4.793690052E-3,-3.728425596E-3
2.332138181E2,2.663161140E-3,-2.663161140E-3,-6.391586736E-3
2.334646115E2,3.728425596E-3,-4.261057824E-3,-9.054748341E-3
2.337152524E2,-2.396845073E-2,-1.970739290E-2,1.065264456E-3
2.339656796E2,-2.609897964E-2,6.924218964E-3,6.924218964E-3
2.342163205E2,-4.261057824E-3,1.065264456E-3,-9.054748341E-3
2.344667477E2,1.331580617E-2,-5.326322280E-3,-1.544633508E-2
2.347173276E2,1.597896684E-3,2.663161140E-3,-2.663161140E-3
2.349678464E2,3.195793368E-3,-5.326322280E-3,1.065264456E-3
2.352185178E2,-6.391586736E-3,1.597896684E-3,7.456851192E-3
2.354690366E2,-4.261057824E-3,-1.065264456E-2,7.456851192E-3
2.357196164E2,-1.597896684E-3,1.065264456E-3,8.522115648E-3
2.359700436E2,-1.704423130E-2,-1.278317347E-2,1.491370238E-2
2.362205319E2,1.810949668E-2,1.917476021E-2,8.522115648E-3
2.364708981E2,-2.130528912E-3,1.704423130E-2,-1.810949668E-2
2.367213254E2,-4.793690052E-3,2.024002373E-2,1.065264456E-2
2.369717831E2,-1.118527725E-2,1.704423130E-2,2.556634694E-2
2.372223019E2,-1.225054078E-2,-1.491370238E-2,-1.065264456E-2
2.374728207E2,5.326322280E-4,1.597896684E-3,8.522115648E-3
2.377233701E2,1.012001187E-2,-4.261057824E-3,5.326322280E-4
2.379739499E2,7.989482954E-3,9.587380104E-3,-4.793690052E-3
2.382244382E2,2.077265643E-2,2.716424316E-2,-1.438106969E-2
2.384747739E2,-1.118527725E-2,-2.663161140E-3,2.663161140E-3
2.387253537E2,-1.278317347E-2,-1.438106969E-2,-1.278317347E-2
2.389760861E2,-1.065264456E-3,9.054748341E-3,2.290318534E-2
2.392266354E2,1.065264456E-3,1.384843793E-2,1.970739290E-2
2.394771542E2,1.810949668E-2,5.326322280E-4,-5.858954508E-3
2.397276730E2,-1.597896684E-3,-2.343581803E-2,-5.326322280E-3
2.399781613E2,-1.278317347E-2,-9.587380104E-3,5.326322280E-4
2.402287106E2,2.396845073E-2,6.391586736E-3,-2.663161140E-3
2.404792294E2,-3.728425596E-3,1.225054078E-2,6.924218964E-3
2.407296872E2,-1.065264456E-3,6.924218964E-3,-1.331580617E-2
2.409802060E2,-1.597896684E-3,-1.651159860E-2,-3.994741663E-2
2.412308163E2,4.261057824E-3,2.663161140E-3,5.326322280E-3
2.414812436E2,-3.195793368E-3,7.989482954E-3,-6.924218964E-3
2.417316098E2,9.054748341E-3,-3.195793368E-3,-5.326322280E-3
2.419820370E2,1.810949668E-2,3.728425596E-3,0.000000000E0
2.422326779E2,-1.917476021E-2,-6.924218964E-3,1.331580617E-2
2.424831662E2,-1.384843793E-2,1.597896684E-3,-6.391586736E-3
2.427336545E2,1.597896684E-3,-2.663161140E-3,-6.391586736E-3
2.429843564E2,-1.438106969E-2,5.326322280E-4,5.326322280E-4
2.432348752E2,1.597896684E-3,3.195793368E-3,2.130528912E-3
2.434854550E2,7.989482954E-3,4.793690052E-3,5.326322280E-4
2.437360043E2,4.793690052E-3,-1.651159860E-2,1.225054078E-2
2.439865231E2,4.793690052E-3,-1.597896684E-3,4.793690052E-3
2.442371945E2,9.054748341E-3,-2.396845073E-2,4.261057824E-3
2.444875302E2,1.438106969E-2,3.195793368E-3,7.989482954E-3
2.447379575E2,1.384843793E-2,-5.858954508E-3,-1.065264456E-2
2.449884457E2,-5.858954508E-3,1.970739290E-2,-1.384843793E-2
2.452389645E2,-2.130528912E-3,1.065264456E-3,-2.183792181E-2
2.454893002E2,-1.384843793E-2,-1.384843793E-2,-2.609897964E-2
2.457397885E2,4.793690052E-3,2.663161140E-3,1.065264456E-3
2.459901852E2,8.522115648E-3,3.728425596E-3,1.065264456E-3
2.462406125E2,-5.326322280E-4,-1.225054078E-2,-3.728425596E-3
2.464911313E2,-4.793690052E-3,5.858954508E-3,6.391586736E-3
2.467417416E2,-2.130528912E-3,7.989482954E-3,6.391586736E-3
2.469920163E2,-1.012001187E-2,-1.278317347E-2,-9.054748341E-3
2.472424130E2,-1.651159860E-2,2.663161140E-3,-1.278317347E-2
2.474930234E2,3.195793368E-3,-9.054748341E-3,-5.326322280E-4
2.477436032E2,-6.391586736E-3,-1.278317347E-2,-4.261057824E-3
2.479941525E2,-4.261057824E-3,6.391586736E-3,7.989482954E-3
2.482447934E2,-1.065264456E-2,-5.326322280E-3,2.663161233E-2
2.484953122E2,1.118527725E-2,-3.089267015E-2,-1.012001187E-2
2.487459225E2,1.597896591E-2,3.728425596E-3,2.130528912E-3
2.489963193E2,-1.970739290E-2,4.793690052E-3,-2.609897964E-2
2.492469907E2,-1.065264456E-3,1.491370238E-2,-6.924218964E-3
2.494974789E2,-2.130528912E-3,2.663161140E-3,-5.326322280E-4
2.497478757E2,5.326322280E-4,-5.326322280E-4,5.326322280E-3
2.499984860E2,-7.456851192E-3,-2.237055451E-2,-4.793690052E-3
2.502487912E2,3.195793368E-3,-4.793690052E-3,-9.054748341E-3
2.504993710E2,-9.587380104E-3,6.391586736E-3,3.728425596E-3
2.507499204E2,-1.065264456E-3,7.989482954E-3,1.331580617E-2
2.510003781E2,7.456851192E-3,1.384843793E-2,1.065264456E-2
2.512509885E2,-1.065264456E-3,1.065264456E-3,-6.924218964E-3
2.515013547E2,-1.012001187E-2,-1.171790902E-2,-5.858954508E-3
2.517518430E2,-3.728425596E-3,-1.597896591E-2,-1.970739290E-2
2.520023618E2,-5.858954508E-3,-4.261057824E-3,-1.065264456E-3
2.522528500E2,-3.195793368E-3,4.261057824E-3,1.597896684E-3
2.525033078E2,3.728425596E-3,5.326322280E-3,1.544633508E-2
2.527537961E2,4.261057824E-3,-3.195793368E-3,3.728425596E-3
2.530042538E2,3.728425596E-3,-1.065264456E-2,-1.065264456E-2
2.532546062E2,7.989482954E-3,-1.597896591E-2,1.012001187E-2
2.535050640E2,-2.024002373E-2,6.391586736E-3,-4.793690052E-3
2.537555217E2,-1.065264456E-2,5.326322280E-3,1.597896684E-3
2.540059490E2,-5.326322280E-3,-1.118527725E-2,-7.989482954E-3
2.542563762E2,-6.391586736E-3,4.261057824E-3,1.704423130E-2
2.545068035E2,-6.391586736E-3,-6.924218964E-3,1.597896684E-3
2.547574138E2,3.195793368E-3,-2.130528912E-3,-1.171790902E-2
2.550079631E2,1.012001187E-2,1.704423130E-2,9.054748341E-3
2.552584209E2,-2.183792181E-2,-1.065264456E-2,-1.171790902E-2
2.555089092E2,-1.065264456E-3,-1.225054078E-2,1.597896684E-3
2.557595195E2,-1.491370238E-2,-6.391586736E-3,-4.261057824E-3
2.560099773E2,-5.326322280E-3,6.391586736E-3,4.793690052E-3
2.562605571E2,-2.130528912E-2,0.000000000E0,1.491370238E-2
2.565111980E2,5.858954508E-3,-7.456851192E-3,1.065264456E-3
2.567616252E2,5.858954508E-3,5.326322280E-4,1.065264456E-3
2.570120525E2,8.522115648E-3,-5.326322280E-4,1.118527725E-2
2.572623272E2,-4.261057824E-3,-2.130528912E-2,4.261057824E-3
2.575129375E2,6.391586736E-3,1.065264456E-3,1.225054078E-2
2.577634563E2,2.130528912E-3,-2.663161140E-3,5.326322280E-3
2.580137920E2,1.065264456E-3,1.118527725E-2,-1.651159860E-2
2.582643108E2,-1.597896684E-3,-2.130528912E-3,-1.917476021E-2
2.585147686E2,-2.609897964E-2,3.728425596E-3,-2.343581803E-2
2.587655010E2,1.171790902E-2,2.503371425E-2,-4.793690052E-3
2.590158672E2,5.858954508E-3,1.384843793E-2,-4.793690052E-3
2.592663860E2,-4.261057824E-3,-8.522115648E-3,2.130528912E-3
2.595169048E2,5.326322280E-3,7.989482954E-3,1.065264456E-3
2.597673320E2,4.793690052E-3,-5.326322280E-3,3.195793368E-3
2.600177898E2,-5.326322280E-4,-4.793690052E-3,-1.597896684E-3
2.602682170E2,-1.544633508E-2,-7.989482954E-3,1.491370238E-2
2.605187053E2,-1.065264456E-2,6.391586736E-3,4.261057824E-3
2.607692241E2,-9.054748341E-3,-6.391586736E-3,-5.326322280E-4
2.610196209E2,1.118527725E-2,2.663161140E-3,8.522115648E-3
2.612700176E2,1.491370238E-2,-2.663161140E-3,-2.130528912E-3
2.615206890E2,1.597896591E-2,-5.858954508E-3,0.000000000E0
2.617711772E2,-1.171790902E-2,-3.728425596E-3,9.587380104E-3
2.620216655E2,-7.456851192E-3,-3.728425596E-3,1.278317347E-2
2.622721233E2,0.000000000E0,1.438106969E-2,-1.118527725E-2
2.625226116E2,3.728425596E-3,0.000000000E0,-1.065264456E-2
2.627730693E2,-1.065264456E-3,-2.663161140E-3,-5.326322280E-3
2.630234050E2,-1.597896684E-3,-3.728425596E-3,-5.326322280E-3
2.632739238E2,5.326322280E-3,-3.195793368E-3,0.000000000E0
2.635245037E2,1.597896684E-3,-1.012001187E-2,-5.326322280E-3
2.637750835E2,-3.728425596E-3,2.130528912E-3,-5.326322280E-3
2.640255718E2,-5.326322280E-4,-3.728425596E-3,-5.326322280E-3
2.642758770E2,-1.597896684E-3,4.261057824E-3,5.858954508E-3
2.645263652E2,9.054748341E-3,2.343581803E-2,1.704423130E-2
2.647769756E2,-3.089267015E-2,3.195793368E-3,-6.391586736E-3
2.650276165E2,1.065264456E-3,1.597896684E-3,-5.326322280E-4
2.652780437E2,-2.450108156E-2,-2.130528912E-3,-4.261057824E-3
2.655284404E2,9.587380104E-3,2.130528912E-2,1.065264456E-2
2.657789287E2,4.261057824E-3,-2.663161140E-3,6.391586736E-3
2.660296917E2,2.024002373E-2,-1.970739290E-2,1.065264456E-2
2.662801494E2,-3.195793368E-3,-1.970739290E-2,-1.597896684E-3
2.665305156E2,1.065264456E-2,7.989482954E-3,1.917476021E-2
2.667812175E2,2.716424316E-2,1.438106969E-2,-1.171790902E-2
2.670318889E2,-1.384843793E-2,1.864212751E-2,-2.556634694E-2
2.672823162E2,-9.587380104E-3,-2.663161140E-3,-1.438106969E-2
2.675326519E2,-1.171790902E-2,-3.195793368E-3,-1.384843793E-2
2.677831401E2,-3.249056637E-2,-2.024002373E-2,4.793690052E-3
2.680334453E2,-2.663161140E-3,1.384843793E-2,6.924218964E-3
2.682839336E2,5.326322280E-3,-1.065264456E-3,5.326322280E-3
2.685344829E2,1.544633508E-2,5.326322280E-3,-3.728425596E-3
2.687850627E2,-2.663161140E-3,-1.917476021E-2,-4.793690052E-3
2.690356121E2,5.326322280E-3,5.858954508E-3,-5.326322280E-3
2.692861003E2,1.597896591E-2,-2.663161140E-3,-7.989482954E-3
2.695365581E2,1.544633508E-2,-1.118527725E-2,-9.054748341E-3
2.697871685E2,5.326322280E-4,9.054748341E-3,1.491370238E-2
2.700376262E2,1.225054078E-2,5.326322280E-4,-5.326322280E-3
2.702882061E2,3.195793368E-3,1.597896684E-3,2.663161140E-3
2.705386028E2,-5.326322280E-4,-4.261057824E-3,-2.130528912E-3
2.707891216E2,1.917476021E-2,-1.012001187E-2,1.597896684E-3
2.710395794E2,-5.326322280E-4,0.000000000E0,8.522115648E-3
2.712902813E2,9.054748341E-3,-2.450108156E-2,-1.970739290E-2
2.715406475E2,3.302319720E-2,1.917476021E-2,-1.384843793E-2
2.717912578E2,-1.704423130E-2,-3.728425596E-3,-2.183792181E-2
2.720417766E2,5.858954508E-3,2.556634694E-2,-1.278317347E-2
2.722922344E2,1.597896684E-3,-6.391586736E-3,-5.326322280E-3
2.725427837E2,1.118527725E-2,8.522115648E-3,-8.522115648E-3
2.727933025E2,2.130528912E-3,-6.924218964E-3,-1.597896684E-3
2.730438823E2,-5.326322280E-3,3.728425596E-3,-2.130528912E-3
2.732942180E2,-9.587380104E-3,1.597896591E-2,1.491370238E-2
2.735447979E2,2.663161140E-3,1.225054078E-2,-1.278317347E-2
2.737954692E2,-1.597896684E-3,9.587380104E-3,-5.326322280E-3
2.740458049E2,-1.864212751E-2,-8.522115648E-3,-5.858954508E-3
2.742962322E2,4.261057824E-3,2.130528912E-2,1.491370238E-2
2.745467205E2,-3.195793368E-3,2.130528912E-3,-2.663161140E-3
2.747972698E2,-3.675162420E-2,3.195793368E-3,1.597896684E-3
2.750476970E2,6.391586736E-3,4.793690052E-3,8.522115648E-3
2.752983379E2,-2.769687586E-2,-6.391586736E-3,-1.384843793E-2
2.755486736E2,5.699164793E-2,-1.757686399E-2,-6.391586736E-3
2.757993755E2,-5.379585549E-2,-3.030677438E-1,1.065264493E-1
2.760499248E2,5.592638254E-2,5.645901710E-2,-1.917476021E-2
2.763005046E2,4.261057824E-3,-5.645901710E-2,-9.587380104E-3
2.765509624E2,4.687163606E-2,-6.817692518E-2,1.065264456E-2
2.768016948E2,6.338323653E-2,1.278317273E-1,1.006674916E-1
2.770522441E2,3.781688958E-2,1.065264456E-3,6.072007492E-2
2.773028545E2,5.273059011E-2,-5.592638254E-2,-1.438106969E-2
2.775533428E2,7.882957160E-2,3.036003746E-2,-6.018744037E-2
2.778037700E2,2.663161140E-3,6.338323653E-2,4.633900523E-2
2.780542278E2,4.793690052E-3,-1.597896591E-2,-4.314320907E-2
2.783048687E2,-2.130528912E-2,1.065264456E-2,-2.663161140E-3
2.785553569E2,4.793690052E-3,-1.597896684E-3,-1.225054078E-2
2.788058757E2,4.314320907E-2,2.024002373E-2,-2.077265643E-2
2.790564251E2,1.491370238E-2,5.858954508E-3,-6.391586736E-3
2.793068828E2,5.858954508E-3,1.544633508E-2,1.438106969E-2
2.795572185E2,-7.456851192E-3,1.225054078E-2,2.024002373E-2
2.798077373E2,-6.924218964E-3,2.663161140E-3,1.597896684E-3
2.800581951E2,1.491370238E-2,0.000000000E0,-1.970739290E-2
2.803087444E2,1.118527725E-2,-2.130528912E-3,-7.456851192E-3
2.805590190E2,1.065264456E-3,2.822950855E-2,-3.728425596E-3
2.808093853E2,-9.587380104E-3,3.728425596E-3,3.195793368E-3
2.810597515E2,-1.331580617E-2,-2.663161140E-3,-6.924218964E-3
2.813103313E2,5.326322280E-3,1.597896591E-2,-1.012001187E-2
2.815607585E2,3.195793368E-3,3.195793368E-3,-5.858954508E-3
2.818114299E2,4.793690052E-3,-1.012001187E-2,2.130528912E-3
2.820618877E2,-1.810949668E-2,6.391586736E-3,1.597896591E-2
2.823123760E2,1.491370238E-2,1.065264456E-3,-2.663161140E-3
2.825628032E2,-1.864212751E-2,-1.171790902E-2,-1.118527725E-2
2.828133525E2,-1.491370238E-2,-1.597896591E-2,6.391586736E-3
2.830639019E2,-1.331580617E-2,-2.663161140E-3,1.278317347E-2
2.833144207E2,6.391586736E-3,1.065264456E-2,9.587380104E-3
2.835649089E2,-4.793690052E-3,-1.171790902E-2,-1.810949668E-2
2.838153667E2,-1.171790902E-2,-1.225054078E-2,2.130528912E-3
2.840658245E2,-2.183792181E-2,1.065264456E-3,-4.793690052E-3
2.843163433E2,5.858954508E-3,2.130528912E-3,-1.065264456E-3
2.845669231E2,-1.065264456E-3,-6.924218964E-3,-4.793690052E-3
2.848173503E2,-2.663161140E-3,-6.391586736E-3,-5.326322280E-4
2.850677776E2,1.651159860E-2,1.065264456E-3,-1.012001187E-2
2.853182659E2,-1.597896591E-2,3.728425596E-3,4.793690052E-3
2.855687847E2,-1.544633508E-2,5.326322280E-3,9.587380104E-3
2.858195440E2,1.651159860E-2,0.000000000E0,-1.171790902E-2
2.860701167E2,9.587380104E-3,1.225054078E-2,7.989482954E-3
2.863207881E2,-3.195793368E-3,-2.663161140E-3,2.663161140E-3
2.865712763E2,1.118527725E-2,-5.326322280E-4,-4.793690052E-3
2.868218562E2,1.384843793E-2,-1.171790902E-2,-1.864212751E-2
2.870722529E2,-2.663161140E-3,-4.793690052E-3,-9.587380104E-3
2.873226496E2,-7.989482954E-3,-1.384843793E-2,7.456851192E-3
2.875729243E2,-6.924218964E-3,-5.858954508E-3,9.587380104E-3
2.878234126E2,-5.326322280E-4,-3.195793368E-3,5.858954508E-3
2.880738398E2,7.456851192E-3,-6.391586736E-3,-2.769687586E-2
2.883243586E2,-1.225054078E-2,-9.054748341E-3,6.391586736E-3
2.885748469E2,1.384843793E-2,1.704423130E-2,5.858954508E-3
2.888255488E2,1.597896684E-3,1.278317347E-2,7.989482954E-3
2.890758540E2,3.728425596E-3,1.438106969E-2,1.171790902E-2
2.893263117E2,-1.171790902E-2,-1.171790902E-2,-3.728425596E-3
2.895768610E2,-9.587380104E-3,-4.207794741E-2,-2.769687586E-2
2.898275019E2,-7.989482954E-3,-3.195793368E-3,3.728425596E-3
2.900782038E2,-4.793690052E-3,-5.326322280E-4,2.130528912E-3
2.903286921E2,-9.054748341E-3,9.054748341E-3,-9.054748341E-3
2.905790888E2,0.000000000E0,1.065264456E-3,-6.391586736E-3
2.908295161E2,9.054748341E-3,-1.171790902E-2,-8.522115648E-3
2.910799738E2,-2.663161233E-2,-4.793690052E-3,-2.130528912E-3
2.913304621E2,1.012001187E-2,-2.130528912E-3,-6.391586736E-3
2.915809199E2,-2.663161140E-3,-3.728425596E-3,1.597896591E-2
2.918314997E2,1.597896684E-3,-7.456851192E-3,-1.065264456E-2
2.920820490E2,3.195793368E-3,0.000000000E0,9.054748341E-3
2.923326899E2,1.704423130E-2,-2.663161140E-3,-2.663161140E-3
2.925832392E2,-2.929477207E-2,-1.704423130E-2,-4.261057824E-3
2.928340937E2,3.302319720E-2,-4.314320907E-2,-2.130528912E-2
2.930844294E2,-1.864212751E-2,-6.924218964E-3,-1.225054078E-2
2.933349177E2,5.326322280E-3,7.989482954E-3,1.065264456E-2
2.935854975E2,-6.924218964E-3,-1.225054078E-2,4.793690052E-3
2.938361994E2,7.456851192E-3,6.924218964E-3,-1.171790902E-2
2.940865962E2,4.261057824E-3,1.597896684E-3,-1.438106969E-2
2.943371150E2,-4.101268202E-2,-1.065264456E-2,-1.544633508E-2
2.945875422E2,5.326322280E-4,5.326322280E-4,-9.054748341E-3
2.948380305E2,8.522115648E-3,-2.663161140E-3,7.989482954E-3
2.950884882E2,7.989482954E-3,4.261057824E-3,-7.989482954E-3
2.953390070E2,1.171790902E-2,-1.065264456E-3,-1.065264456E-2
2.955892817E2,1.225054078E-2,2.769687586E-2,3.728425596E-3
2.958398615E2,-5.326322280E-4,3.728425596E-3,1.065264456E-2
2.960902277E2,4.261057824E-3,-1.597896684E-3,6.391586736E-3
2.963408381E2,-7.456851192E-3,2.663161140E-3,3.195793368E-3
2.965912653E2,-1.118527725E-2,2.130528912E-3,-3.728425596E-3
2.968418452E2,-2.130528912E-3,2.077265643E-2,5.326322280E-3
2.970922419E2,-3.195793368E-3,-1.065264456E-2,0.000000000E0
2.973429438E2,0.000000000E0,-1.438106969E-2,-1.597896684E-3
2.975935847E2,-1.012001187E-2,-6.924218964E-3,-7.456851192E-3
2.978439814E2,1.597896684E-3,-2.183792181E-2,-1.970739290E-2
2.980945307E2,-4.261057824E-3,-1.012001187E-2,5.326322280E-3
2.983449580E2,-6.391586736E-3,-4.261057824E-3,-2.663161140E-3
2.985955073E2,1.651159860E-2,9.054748341E-3,-2.130528912E-3
2.988460566E2,3.195793368E-3,-1.012001187E-2,-1.331580617E-2
2.990965144E2,-1.384843793E-2,-3.195793368E-3,-1.278317347E-2
2.993472163E2,-4.261057824E-3,1.331580617E-2,0.000000000E0
2.995976435E2,1.597896684E-3,4.261057824E-3,6.924218964E-3
2.998482234E2,1.012001187E-2,1.384843793E-2,8.522115648E-3
