"Time (s)","Acceleration x (m/s^2)","Acceleration y (m/s^2)","Acceleration z (m/s^2)"
0.000000000E0,1.410184765E1,-3.696647406E0,-6.416460276E-1
2.519226070E-1,4.058171749E0,-2.621650934E0,-9.169792533E-1
5.022888180E-1,1.040280628E1,-6.086060524E0,-1.283292055E0
7.524108890E-1,5.743690014E0,-1.278503656E0,-6.129156351E-1
1.002746582E0,1.575384712E1,-3.517082214E0,1.587355733E0
1.252929688E0,7.611167431E0,-2.880224705E0,2.226607651E-1
1.503042221E0,8.662221909E0,-7.043741226E0,1.173158810E-1
1.753133774E0,1.020408726E1,-3.387795448E0,-1.340752989E-1
2.003408432E0,1.005085850E1,-4.400542736E0,2.825157940E-1
2.253652572E0,1.591186428E1,-4.355052948E0,-7.613561153E-1
2.503835678E0,5.391742229E0,-4.683058739E0,7.493851185E-1
2.753988266E0,1.088164711E1,-7.350199223E0,9.193734527E-1
3.004293442E0,5.298368454E0,-2.114080191E0,-2.035071403E-1
3.254354477E0,1.179383755E1,-1.714248419E0,1.173158884E0
3.504751205E0,6.426037312E0,-2.339135170E0,4.692635238E-1
3.754964828E0,8.930372238E0,-6.665457726E0,1.113303781E0
4.005208969E0,8.245630264E0,-2.906560898E0,-5.099649429E-1
4.255361557E0,1.074038887E1,-4.812345505E0,1.551442742E0
4.505788803E0,1.431253815E1,-4.965574265E0,1.527500629E0
4.755880356E0,6.217741966E0,-4.659116745E0,5.434837937E-1
5.006155014E0,9.354146004E0,-7.343016624E0,-1.771709323E-1
5.256399154E0,6.904877663E0,-1.924938202E0,-4.333505034E-1
5.506643295E0,1.216493893E1,-2.387019157E0,6.703764796E-1
5.756795883E0,5.762843609E0,-2.896984100E0,5.099649429E-1
6.007009506E0,9.782708168E0,-8.013393402E0,2.585737705E-1
6.258962631E0,7.225700855E0,-2.518700123E0,-1.161187768E0
6.509115219E0,1.312022495E1,-4.726154327E0,1.728613615E0
6.759267807E0,1.313459015E1,-5.190629482E0,8.619126081E-1
7.009359360E0,6.931213856E0,-5.420472622E0,5.793967843E-1
7.259359360E0,9.734824181E0,-7.019799232E0,-7.996633649E-1
7.509603500E0,6.581660271E0,-2.746149302E0,8.571242094E-1
7.759817123E0,1.207874775E1,-2.413355350E0,7.230489254E-1
8.010030746E0,5.815515995E0,-2.564189911E0,4.620809257E-1
8.260213852E0,9.258378029E0,-9.370905876E0,3.112462163E-2
8.510213852E0,6.495469093E0,-3.100491285E0,-6.081272364E-1
8.760580063E0,1.081460953E1,-5.992686749E0,-2.394201607E-2
9.012547166E0,1.275630665E1,-5.949591160E0,7.996633649E-1
9.262882859E0,6.524199486E0,-4.807557106E0,2.777273953E-1
9.512882859E0,9.720458984E0,-7.000645638E0,-5.841852427E-1
9.763065965E0,5.844246387E0,-2.667140722E0,1.795651317E-1
1.001321855E1,1.042195988E1,-2.798821688E0,7.422025502E-2
1.026355425E1,5.592854977E0,-2.734178305E0,7.158663273E-1
1.051382890E1,9.397241592E0,-6.873753071E0,5.434837937E-1
1.076401201E1,8.269572258E0,-3.509899616E0,-4.836287498E-1
1.101596514E1,1.118092155E1,-5.279214859E0,1.819593310E-1
1.126611772E1,1.294544888E1,-5.363011837E0,7.900865376E-2
1.151636186E1,5.710171223E0,-4.819528103E0,1.484405100E-1
1.176642290E1,9.459490776E0,-6.706159115E0,-2.298433632E-1
1.201660600E1,5.109226227E0,-2.856282711E0,-1.893813491E0
1.226685014E1,1.151371574E1,-4.086902142E0,8.499416113E-1
1.251739946E1,6.797138691E0,-3.837905407E0,9.121908545E-1
1.276746050E1,8.999804497E0,-8.166622162E0,2.561795712E-1
1.301773515E1,7.637503624E0,-3.691859007E0,-1.283292055E0
1.326797930E1,1.118570995E1,-5.956773758E0,1.905784607E0
1.351831499E1,1.343147182E1,-4.929661274E0,-5.841852427E-1
1.376868120E1,5.609614372E0,-5.269638062E0,1.867477298E-1
1.401889482E1,9.382876396E0,-5.403713226E0,-3.256114423E-1
1.426898638E1,5.516240597E0,-2.133233786E0,-1.776497602E0
1.451910844E1,1.404438686E1,-4.247313976E0,1.841141105E0
1.476932207E1,7.139509678E0,-3.797203779E0,1.798045516E0
1.501965776E1,8.274360657E0,-8.750806808E0,3.711012602E-1
1.526993242E1,9.361329079E0,-5.573701382E0,1.053448766E-1
1.552014604E1,9.133879662E0,-4.596867085E0,-1.221042871E-1
1.577026811E1,1.279700851E1,-4.369418144E0,-4.213795066E-1
1.602029863E1,5.698200226E0,-3.428496838E0,-2.561795712E-1
1.627035967E1,7.809885979E0,-6.265625954E0,4.740519226E-1
1.652048174E1,5.983109951E0,-2.470816135E0,-1.290474772E0
1.677075639E1,1.366610336E1,-5.702988625E0,9.193734527E-1
1.702087847E1,7.261613846E0,-3.440467834E0,1.798045516E0
1.727109209E1,9.856928825E0,-8.425195694E0,-2.394201756E-1
1.752124468E1,1.022802925E1,-7.477091789E0,4.189853072E-1
1.777142778E1,8.985439301E0,-4.438849926E0,-7.829039693E-1
1.802179399E1,1.346738434E1,-4.019864559E0,-8.236053586E-1
1.827188554E1,5.279214859E0,-3.442862034E0,-4.955997467E-1
1.852200762E1,7.965508938E0,-5.346252441E0,1.912967205E0
1.877231279E1,6.584054470E0,-2.023100376E0,-1.055842996E0
1.902264848E1,1.319205093E1,-6.605602264E0,1.771709323E-1
1.927286211E1,7.594407558E0,-4.283226967E0,1.541865945E0
1.952301470E1,9.433155060E0,-7.560888767E0,4.070142806E-1
1.977307573E1,1.057997704E1,-6.196194172E0,-1.388636976E-1
2.002319780E1,9.773131371E0,-4.086902142E0,3.136404157E-1
2.027359453E1,1.055842972E1,-4.613626480E0,5.506663918E-1
2.052362505E1,6.064512730E0,-3.813963413E0,-5.267243981E-1
2.077551714E1,8.449137688E0,-6.318298340E0,-5.841852427E-1
2.102582231E1,5.446808815E0,-2.774879694E0,-6.344634295E-1
2.127606645E1,1.312740803E1,-5.772420406E0,-2.705447972E-1
2.152631059E1,8.001421928E0,-4.477157116E0,1.211466074E0
2.177664629E1,8.638279915E0,-7.098807812E0,4.070142806E-1
2.202685991E1,1.031900978E1,-6.282385349E0,2.442085743E-1
2.227719560E1,7.206547260E0,-4.048594952E0,-9.097966552E-2
2.252756181E1,1.191115379E1,-4.647145271E0,-4.596867263E-1
2.277756181E1,5.583278179E0,-3.141192675E0,-4.596867263E-1
2.302783647E1,8.858546257E0,-6.713341713E0,-4.548983276E-2
2.327783647E1,5.944802761E0,-2.999934673E0,-1.505952835E0
2.352823320E1,1.157117653E1,-5.777208805E0,4.716577232E-1
2.377829424E1,1.157835960E1,-5.638344765E0,4.429273009E-1
2.402853838E1,7.304709435E0,-5.453991413E0,5.315127969E-1
2.427881304E1,8.865729332E0,-6.536170483E0,6.943184882E-2
2.452908769E1,6.253654957E0,-3.155557871E0,-3.663128614E-1
2.477927080E1,1.039562416E1,-4.156333923E0,1.192312479E0
2.502939287E1,6.789956093E0,-2.846705914E0,3.974374831E-1
2.527972856E1,9.406818390E0,-7.829039574E0,7.805097699E-1
2.553006426E1,7.888894558E0,-5.439626217E0,1.412578970E-1
2.578039995E1,9.868899345E0,-4.999093056E0,4.884171486E-1
2.603079668E1,1.321120453E1,-4.659116745E0,-1.771709323E-1
2.628094926E1,5.200206280E0,-4.034229755E0,1.604115069E-1
2.653097978E1,8.678980827E0,-6.016628742E0,-3.687070608E-1
2.678104082E1,6.258443356E0,-2.260126352E0,-1.352723956E0
2.703140703E1,1.296939087E1,-5.980715752E0,6.679822803E-1
2.728159014E1,8.458714485E0,-4.256890774E0,2.104503393E0
2.753165117E1,7.642292023E0,-7.108384609E0,4.070143029E-2
2.778165117E1,1.156159973E1,-6.514622688E0,-5.482721925E-1
2.803180376E1,6.370970726E0,-4.426878929E0,2.466027737E-1
2.828198686E1,1.188242340E1,-4.122815132E0,-5.363011956E-1
2.853232256E1,5.549759388E0,-3.270479441E0,7.637503147E-1
2.878247514E1,1.035013390E1,-8.204929352E0,-1.077390760E-1
2.903250566E1,6.200982571E0,-3.775655985E0,-7.182605099E-3
2.928274980E1,1.040280628E1,-6.045359135E0,1.161187768E0
2.953290239E1,1.271321106E1,-6.387730122E0,-7.829039693E-1
2.978308550E1,6.732495308E0,-4.604049683E0,-1.771709323E-1
3.003339067E1,9.109937668E0,-5.408501625E0,-9.481038451E-1
3.028339067E1,6.667851925E0,-2.434903145E0,-8.259995580E-1
3.053348222E1,1.062546730E1,-5.260061264E0,1.369483352E0
3.078348222E1,7.180211067E0,-3.272873640E0,8.762778044E-1
3.103354326E1,1.051533413E1,-9.217676163E0,-5.147533417E-1
3.128552690E1,6.744466305E0,-5.269638062E0,6.272808313E-1
3.153748003E1,1.019690514E1,-4.659116745E0,1.460463047E0
3.178760210E1,1.473391724E1,-5.882553577E0,4.453215301E-1
3.203787676E1,5.509057999E0,-4.503493309E0,2.633621916E-2
3.228809038E1,9.478644371E0,-7.017405033E0,-8.379705995E-2
3.253815141E1,5.863399982E0,-2.880224705E0,-9.121908545E-1
3.278839556E1,1.370201588E1,-6.981492043E0,1.144428372E0
3.303842607E1,7.132327080E0,-4.338293552E0,1.821987510E0
3.328873125E1,8.413225174E0,-8.501810074E0,1.867477298E-1
3.353894487E1,1.088643551E1,-7.170634270E0,8.858546019E-1
3.378928056E1,6.938396454E0,-3.995922565E0,-4.932055473E-1
3.403937212E1,1.153286934E1,-4.982333660E0,-9.744400978E-1
3.428961626E1,5.509057999E0,-3.562572241E0,-2.657563984E-1
3.453986040E1,8.188169479E0,-7.165845871E0,3.567360640E-1
3.479004350E1,6.385335922E0,-3.179499865E0,-8.834604025E-1
3.504047075E1,1.212184334E1,-6.552929878E0,2.138022184E0
3.529068437E1,1.178665543E1,-6.239289761E0,1.853112102E0
3.554074541E1,6.816292286E0,-6.354211330E0,-2.394201607E-2
3.579102007E1,8.951920509E0,-7.268796444E0,-1.651999205E-1
3.604117265E1,7.120356083E0,-3.430891037E0,-6.368576288E-1
3.629126421E1,1.151850414E1,-3.351882458E0,1.592144132E0
3.654132524E1,5.631162167E0,-3.734954596E0,5.578489900E-1
3.679141680E1,9.440337181E0,-8.707711220E0,3.423708379E-1
3.704147783E1,6.754043102E0,-4.390965939E0,-1.051054597E0
3.729202715E1,1.140118885E1,-5.726930618E0,1.280897856E0
3.754230180E1,1.272278786E1,-6.545747280E0,9.313444495E-1
3.779248491E1,6.742072105E0,-6.026205540E0,3.112462163E-1
3.804272905E1,9.844957352E0,-7.055712223E0,3.351882398E-1
3.829306474E1,6.370970726E0,-2.530671120E0,-1.168370485E0
3.854330888E1,1.248815632E1,-4.003105164E0,1.010353088E0
3.879367510E1,6.186617374E0,-2.762908697E0,1.422155857E0
3.904401079E1,9.160215378E0,-7.857769966E0,5.985504389E-2
3.929431596E1,6.493074894E0,-4.481945515E0,-3.160346150E-1
3.954443804E1,1.033576870E1,-5.185841084E0,1.963245422E-1
3.979465166E1,1.322556973E1,-5.741295815E0,-3.160346150E-1
4.004492632E1,7.084442616E0,-5.106832027E0,1.029506698E-1
4.029523149E1,8.111555099E0,-6.349422932E0,5.339069963E-1
4.054529253E1,6.148310184E0,-2.669534922E0,-7.996633649E-1
4.079553667E1,1.253843403E1,-4.659116745E0,9.935936928E-1
4.104559770E1,7.048529625E0,-3.706224203E0,5.003881454E-1
4.129587236E1,8.236053467E0,-7.623138428E0,9.576806426E-2
4.154593340E1,9.354146004E0,-5.468356609E0,3.591302633E-1
4.179601232E1,8.585607529E0,-5.123591423E0,2.226607651E-1
4.204607335E1,1.229183197E1,-4.343081951E0,2.681505978E-1
4.229622594E1,6.181828976E0,-3.663128614E0,-1.843535304E-1
4.254814855E1,6.469132900E0,-6.042964935E0,9.481038451E-1
4.279814855E1,6.093243122E0,-2.339135170E0,-1.386242747E0
4.304839269E1,1.225831223E1,-6.272808552E0,1.256955862E0
4.329848424E1,7.754819393E0,-4.479551315E0,1.747767210E0
4.354869786E1,8.971074104E0,-7.795520782E0,2.825157940E-1
4.379869786E1,9.809044838E0,-6.607996464E0,-5.386953950E-1
4.404888097E1,6.775590897E0,-4.446032524E0,-5.243301988E-1
4.429894200E1,1.190875912E1,-4.611232281E0,-7.541735172E-1
4.454912511E1,4.862623692E0,-3.641580820E0,-9.169792533E-1
4.479930821E1,7.283161640E0,-6.438008308E0,1.086967587E0
4.504946080E1,6.366182327E0,-2.305616140E0,-1.187524080E0
4.529955235E1,1.410903072E1,-5.662287235E0,1.596932530E0
4.554961339E1,8.212111473E0,-5.370194435E0,1.778891921E0
4.579985753E1,7.663839817E0,-6.979097843E0,1.292868853E-1
4.605019322E1,1.062067890E1,-6.957550049E0,-4.405331016E-1
4.630028478E1,6.876147270E0,-4.098873138E0,-1.819593310E-1
4.655074254E1,1.239957047E1,-4.086902142E0,3.208230138E-1
4.680086461E1,5.688623428E0,-3.529053211E0,1.699883193E-1
4.705101720E1,8.010998726E0,-6.993463039E0,7.302315235E-1
4.730107823E1,5.396530628E0,-3.213018656E0,-8.283938169E-1
4.755123082E1,1.163821411E1,-6.818686485E0,1.438915253E0
4.780156651E1,1.103008747E1,-6.172252178E0,8.738836050E-1
4.805199376E1,7.335834026E0,-5.975927353E0,-2.178723514E-1
4.830226842E1,9.284713745E0,-7.565677166E0,4.788403399E-3
4.855248204E1,6.191405773E0,-3.002328873E0,-1.675941199E-1
4.880269566E1,1.095826149E1,-4.326322556E0,8.930372596E-1
4.905306188E1,5.829881191E0,-3.105279684E0,1.891419291E-1
4.930318395E1,1.080982113E1,-9.282320023E0,6.775590777E-1
4.955339757E1,5.916072369E0,-4.508281708E0,-3.375824392E-1
4.980358067E1,1.064701462E1,-6.892906666E0,8.283938169E-1
5.005388585E1,1.237802315E1,-5.623979568E0,-4.788403511E-1
5.030422154E1,5.928043365E0,-4.929661274E0,-7.948749661E-1
5.055443517E1,8.762778282E0,-7.149086475E0,-1.891419291E-1
5.080446568E1,6.066906929E0,-2.887407303E0,-1.467645645E0
5.105458775E1,1.105402946E1,-5.013458252E0,8.714894056E-1
5.130654088E1,6.821080685E0,-3.969586372E0,1.151610970E0
5.155663243E1,8.413225174E0,-7.898471355E0,1.261744261E0
5.180669347E1,9.943120003E0,-5.214571476E0,-5.746084079E-2
5.205684606E1,8.580819130E0,-4.795586109E0,3.112462163E-2
5.230702916E1,1.161666679E1,-4.659116745E0,-8.451532125E-1
5.255724278E1,5.518634796E0,-4.103661537E0,-1.070208192E0
5.280736485E1,7.457938194E0,-5.193023682E0,1.711854219E0
5.305757848E1,5.693411827E0,-2.636016130E0,-1.185129881E0
5.330785314E1,1.258631802E1,-6.924031258E0,7.493851185E-1
5.355797521E1,9.648633003E0,-5.674258232E0,1.877054095E0
5.380800572E1,7.623138428E0,-6.672640324E0,-1.316810995E-1
5.405818883E1,9.279925346E0,-6.775590897E0,-8.523358107E-1
5.430834142E1,5.920860767E0,-3.859453201E0,-3.351882473E-2
5.455867711E1,1.134851646E1,-3.277662039E0,1.671152830E0
5.480879918E1,5.470750809E0,-3.744531393E0,8.930372596E-1
5.505910436E1,1.106839466E1,-8.540117264E0,1.007958889E0
5.530934850E1,6.605602264E0,-4.711789131E0,2.035071403E-1
5.555971471E1,9.593565941E0,-5.820304394E0,3.878606856E-1
5.581166783E1,1.270842266E1,-4.807557106E0,-1.029506683E0
5.606197301E1,4.908113480E0,-4.532223701E0,-4.764461517E-1
5.631221715E1,7.077260017E0,-5.544970989E0,1.453280449E0
5.656233922E1,5.956773758E0,-2.770091295E0,-1.201889277E0
5.681267491E1,1.463336086E1,-5.901707172E0,2.044648170E0
5.706267491E1,9.323021889E0,-4.481945515E0,2.391807556E0
5.731301061E1,7.484274387E0,-8.087613106E0,1.675941199E-1
5.756423131E1,1.016578007E1,-6.756437302E0,-5.985504389E-2
5.781441441E1,9.155426979E0,-3.871424198E0,4.405331016E-1
5.806459752E1,1.055124664E1,-4.577713490E0,1.867477298E-1
5.831575719E1,6.229712963E0,-4.477157116E0,3.687070608E-1
5.856597081E1,7.548917770E0,-7.359776020E0,1.855506301E0
5.881618443E1,6.143521786E0,-3.665522814E0,-3.950432837E-1
5.906630650E1,1.313937855E1,-6.995857239E0,1.819593310E0
5.931670323E1,1.117613316E1,-5.705382824E0,9.911994934E-1
5.956688634E1,6.873753071E0,-6.840234280E0,-1.939303428E-1
5.981725255E1,8.128314972E0,-6.969521046E0,-1.197100878E0
6.006838170E1,7.196970463E0,-3.117250681E0,-1.347935557E0
6.031871739E1,9.744400978E0,-3.488351822E0,1.580173075E-1
6.056877843E1,7.386112213E0,-4.216189384E0,1.407790542E0
6.081902257E1,9.394847870E0,-8.623914719E0,-7.900865376E-2
6.106929723E1,7.527369976E0,-4.589684486E0,1.939303428E-1
6.131969396E1,1.210987186E1,-6.057330132E0,1.034295082E0
6.156972447E1,1.126471901E1,-5.374982834E0,9.576806426E-2
6.181987706E1,5.870582581E0,-5.889736176E0,-4.596867263E-1
6.207006017E1,7.821856976E0,-6.399701118E0,-4.525041282E-1
6.232012120E1,6.576871872E0,-3.083731890E0,-8.164227605E-1
6.257039586E1,1.349611473E1,-3.426102638E0,8.212111592E-1
6.282067052E1,7.295132637E0,-4.134786129E0,1.659181833E0
6.307091466E1,8.650250435E0,-8.221688271E0,1.836352706E0
6.332106725E1,9.124302864E0,-5.446808815E0,2.657563984E-1
6.357106725E1,9.952696800E0,-5.372588634E0,-3.830722719E-2
6.382118932E1,1.266532707E1,-4.627991676E0,-1.108515382E0
6.407149449E1,5.659893036E0,-4.723760128E0,-5.075707436E-1
6.432170812E1,7.702147007E0,-5.516240597E0,4.070142806E-1
6.457186070E1,6.373364925E0,-2.288856745E0,-1.510741234E0
6.482204381E1,1.362540150E1,-5.288791656E0,1.161187768E0
6.507219640E1,8.942343712E0,-3.691859007E0,2.231395960E0
6.532244054E1,8.576030731E0,-7.924807549E0,7.661445141E-1
6.557250157E1,9.777919769E0,-7.041347027E0,-6.703764945E-2
6.582271520E1,8.463502884E0,-5.058948040E0,-5.506663918E-1
6.607283727E1,1.272757626E1,-4.508281708E0,-8.690952063E-1
6.632302037E1,5.123591423E0,-4.254496574E0,-5.003881454E-1
6.657323399E1,6.866570473E0,-6.076483727E0,1.968033791E0
6.682366124E1,6.203376770E0,-3.050212860E0,-8.427590132E-1
6.707381383E1,1.301966858E1,-6.636727333E0,1.644816518E0
6.732405797E1,9.533711433E0,-5.140350819E0,1.793257117E0
6.757424108E1,6.900089264E0,-7.486668587E0,7.134721279E-1
6.782448522E1,9.691728592E0,-7.137115479E0,-1.367089152E0
6.807469884E1,7.876923561E0,-4.084507942E0,-2.001552582E0
6.832494298E1,1.130302620E1,-3.653551817E0,-1.228225470E0
6.857524816E1,5.384559631E0,-3.888183594E0,8.906430602E-1
6.882555333E1,9.737217903E0,-9.165003777E0,7.733271718E-1
6.907567540E1,5.887341976E0,-4.295197964E0,-3.639186621E-1
6.932588902E1,1.112346077E1,-6.730101109E0,6.967126727E-1
6.957601109E1,1.169806957E1,-6.416460514E0,7.230489254E-1
6.982640782E1,7.194576263E0,-5.906495571E0,-7.350199223E-1
7.007643834E1,8.013393402E0,-7.484274387E0,-5.051765442E-1
7.032652989E1,6.816292286E0,-3.292027235E0,-2.585737705E-1
7.057692662E1,1.124556541E1,-3.651157618E0,9.792284966E-1
7.082741490E1,6.399701118E0,-3.914519787E0,1.613691926E0
7.107753697E1,7.931990147E0,-7.759607792E0,1.051054597E0
7.132781163E1,7.632715225E0,-5.200206280E0,-1.173158810E-1
7.157793370E1,9.402029991E0,-5.497087002E0,-5.027823523E-2
7.182805577E1,1.232056236E1,-5.691017628E0,-1.678335428E0
7.207820836E1,6.172252178E0,-4.778826714E0,-8.954314590E-1
7.232842198E1,7.817068577E0,-6.234501362E0,8.810662031E-1
7.258032543E1,5.717353821E0,-2.647987127E0,-3.471592367E-1
7.283056957E1,1.273236465E1,-5.114014626E0,1.371877551E0
7.308246166E1,6.871358871E0,-3.050212860E0,1.278503656E0
7.333267529E1,8.971074104E0,-7.802703381E0,1.225831270E0
7.358282787E1,7.702147007E0,-5.269638062E0,-9.385270476E-1
7.383313305E1,8.425195694E0,-4.857835293E0,-6.799532771E-1
7.408356030E1,1.192073059E1,-4.721365929E0,-8.954314590E-1
7.433392651E1,6.416460514E0,-3.481169224E0,-3.878606856E-1
7.458417065E1,9.026140213E0,-5.355829239E0,5.482721925E-1
7.483420117E1,5.449203014E0,-2.276885748E0,-1.845929503E0
7.508444531E1,1.421198082E1,-6.761225700E0,1.268926859E0
7.533450634E1,8.243236542E0,-4.139574528E0,2.825158119E0
7.558468945E1,8.197746277E0,-7.060500622E0,5.051765442E-1
7.583499462E1,9.957485199E0,-6.370970726E0,-9.696516991E-1
7.608526928E1,6.981492043E0,-4.122815132E0,-6.296750307E-1
7.633548290E1,1.162624359E1,-4.129997730E0,-4.644751251E-1
7.658575756E1,5.480327606E0,-3.787626982E0,-1.771709323E-1
7.683594067E1,1.049857426E1,-8.034940720E0,5.770025849E-1
7.708612377E1,6.131550789E0,-3.658340216E0,-1.130063176E0
7.733648998E1,1.136048698E1,-5.925649166E0,1.089361787E0
7.758697826E1,1.175553036E1,-5.724536419E0,-5.602431893E-1
7.783716137E1,6.471527100E0,-4.996698856E0,-9.552865028E-1
7.808728344E1,8.453926086E0,-6.794744492E0,3.256114423E-1
7.833752758E1,6.368576527E0,-2.614468336E0,-1.072602391E0
7.858789379E1,1.236844635E1,-5.094861031E0,1.905784607E0
7.883981640E1,6.868964672E0,-3.675099611E0,7.350199223E-1
7.909018261E1,8.429984093E0,-7.876923561E0,9.696516991E-1
7.934024365E1,9.842563629E0,-6.071695328E0,6.129156351E-1
7.959039623E1,8.664615631E0,-4.460397720E0,1.364694983E-1
7.984192211E1,1.222718811E1,-4.881777287E0,-5.530605912E-1
8.009234936E1,4.838681698E0,-4.276044369E0,-9.576806426E-2
8.034256298E1,6.598419666E0,-6.811503887E0,1.771709204E0
8.059405834E1,5.626373768E0,-3.208230257E0,-3.830722570E-1
8.084430248E1,1.160469532E1,-5.724536419E0,1.793257117E0
8.109448559E1,9.021351814E0,-5.403713226E0,1.934514999E0
8.134460766E1,8.336610794E0,-7.477091789E0,4.094084799E-1
8.159488232E1,9.117119789E0,-7.381323814E0,-6.560112834E-1
8.184543116E1,7.161057472E0,-4.211400986E0,-1.007958889E0
8.209564479E1,1.154005241E1,-4.007893562E0,-6.464344263E-2
8.234707911E1,6.203376770E0,-3.696647406E0,9.528923035E-1
8.259747584E1,9.639056206E0,-8.298302650E0,5.913678408E-1
8.284762843E1,6.804321289E0,-4.498704910E0,1.029506698E-1
8.309814723E1,9.789890289E0,-6.198588371E0,3.519476354E-1
8.334839137E1,1.218648624E1,-6.026205540E0,-8.116343617E-1
8.360000880E1,5.861005783E0,-5.286397457E0,-3.447650373E-1
8.385193141E1,9.133879662E0,-6.849811077E0,-3.926490843E-1
8.410229762E1,5.975927353E0,-3.093308687E0,-8.858546019E-1
8.435269435E1,1.343147182E1,-5.114014626E0,1.788468719E0
8.460290797E1,6.933608055E0,-4.034229755E0,1.915361404E0
8.485351832E1,8.295908928E0,-8.245630264E0,5.817909837E-1
8.510360988E1,1.031661510E1,-6.619967937E0,-2.992752194E-1
8.535412867E1,7.161057472E0,-4.453215122E0,-3.950432837E-1
8.560541041E1,1.220563984E1,-4.991910458E0,-1.225831270E0
8.585562404E1,5.204994678E0,-3.859453201E0,-9.289502501E-1
8.610730250E1,7.783549786E0,-6.643909931E0,1.326387763E0
8.635925563E1,6.438008308E0,-3.198653460E0,-4.118026793E-1
8.660983546E1,1.141315937E1,-6.833051682E0,1.312022567E0
8.686011012E1,1.057758331E1,-6.773196697E0,7.038952708E-1
8.711126979E1,7.144298077E0,-5.973533154E0,-2.609679997E-1
8.736175807E1,8.365341187E0,-7.328651428E0,-1.872265697E0
8.761191066E1,6.294356346E0,-3.390189648E0,6.775590777E-1
8.786236842E1,1.076911926E1,-3.641580820E0,3.399766386E-1
8.811261256E1,5.700594425E0,-4.151545525E0,1.319205165E0
8.836371119E1,8.676587105E0,-7.838616371E0,1.144428372E0
8.861407740E1,9.028534889E0,-6.402095318E0,-5.027823523E-2
8.886422999E1,8.602366447E0,-5.240907669E0,-8.379705995E-2
8.911465724E1,1.273475838E1,-4.496310711E0,-1.007958889E0
8.936661036E1,5.442020416E0,-4.280832767E0,-6.057330370E-1
8.961700709E1,7.237671852E0,-7.671022415E0,-6.991068721E-1
8.986715968E1,6.222530365E0,-3.083731890E0,-1.043871999E0
9.011722071E1,1.237323475E1,-6.715735912E0,9.193734527E-1
9.036737330E1,1.043632507E1,-5.877765179E0,1.611297727E0
9.061764796E1,8.128314972E0,-6.689399719E0,1.436520964E-1
9.086798365E1,8.429984093E0,-7.699752808E0,-8.307880163E-1
9.111798365E1,6.773196697E0,-3.890577793E0,-1.831564307E0
9.136831935E1,1.122401714E1,-3.354276657E0,-1.197100878E-1
9.161902125E1,6.572083473E0,-3.399766445E0,4.070142806E-1
9.186914332E1,9.100360870E0,-9.311050415E0,-5.985504389E-1
9.211954005E1,5.329493046E0,-5.149928093E0,5.123591423E-1
9.237002833E1,1.006043530E1,-6.672640324E0,1.316810966E0
9.262182887E1,1.214578533E1,-4.378994942E0,-1.302445769E0
9.287240870E1,5.738901615E0,-4.948814869E0,-3.280056417E-1
9.312256129E1,6.416460514E0,-6.517016888E0,5.554547906E-1
9.337286647E1,6.114790916E0,-2.808398485E0,-8.379706144E-1
9.362298854E1,1.274194145E1,-6.919242859E0,1.357512355E0
9.387301905E1,8.971074104E0,-4.580107689E0,2.375048161E0
9.412332423E1,8.195352554E0,-7.982268333E0,1.173158810E-1
9.437359889E1,9.143456459E0,-7.486668587E0,-1.920149803E0
9.462411769E1,7.000645638E0,-4.340687752E0,-9.672574997E-1
9.487420924E1,1.212423706E1,-2.782062292E0,7.015010715E-1
9.512570460E1,5.722142220E0,-3.562572241E0,-3.351882473E-2
9.537604030E1,8.360552788E0,-7.896077156E0,-3.399766386E-1
9.562613185E1,6.461950302E0,-4.395754337E0,1.436521020E-2
9.587683375E1,1.118570995E1,-6.016628742E0,1.247379065E0
9.612692530E1,1.212184334E1,-5.147533417E0,4.477157295E-1
9.637747462E1,7.347805023E0,-4.498704910E0,-1.125274822E-1
9.662765773E1,7.659051418E0,-6.495469093E0,3.854664862E-1
9.688040431E1,7.242460251E0,-2.657563925E0,-1.221042871E-1
9.713232692E1,1.066377449E1,-5.260061264E0,3.213018656E0
9.738266261E1,7.580042362E0,-4.137180328E0,2.104503393E0
9.763321193E1,7.513004780E0,-7.991845131E0,8.762778044E-1
9.788342555E1,1.055603504E1,-7.864952564E0,1.613691926E0
9.813357814E1,8.291120529E0,-3.878606796E0,1.484405100E-1
9.838400538E1,1.130302620E1,-4.223371983E0,4.285621047E-1
9.863437159E1,5.961562157E0,-4.323928356E0,-2.394201607E-2
9.888485988E1,6.593631268E0,-6.703764915E0,8.283938169E-1
9.913492091E1,6.584054470E0,-3.928884983E0,-8.930372596E-1
9.938531764E1,1.232295609E1,-6.694188118E0,2.456450939E0
9.963574488E1,1.129105568E1,-6.107608318E0,1.826775908E0
9.988675196E1,7.417236805E0,-6.797138691E0,6.224924326E-2
1.001382168E2,8.377311707E0,-7.855375767E0,-1.077390790E0
1.003883389E2,6.373364925E0,-3.754108191E0,1.364694983E-1
1.006388882E2,1.131499767E1,-3.567360640E0,2.561795712E-1
1.008891323E2,6.797138691E0,-3.368641853E0,1.675941199E-1
1.011394985E2,8.662221909E0,-8.145073891E0,1.965639591E0
1.013899868E2,8.293514252E0,-4.965574265E0,-2.873042040E-2
1.016403836E2,8.966285706E0,-5.736507416E0,-1.987187415E-1
1.018910244E2,1.070926380E1,-5.214571476E0,-1.323993564E0
1.021413906E2,5.465962410E0,-4.127603531E0,-6.200982332E-1
1.023916653E2,8.164227486E0,-5.568912983E0,1.005564705E-1
1.026418789E2,5.892130375E0,-2.801215887E0,-9.385270476E-1
1.028921231E2,1.169328117E1,-7.960720539E0,9.026140571E-1
1.031426419E2,9.557653427E0,-6.473921299E0,2.942473888E0
1.033929470E2,7.946355343E0,-7.630321026E0,2.561795712E-1
1.036434047E2,9.016563416E0,-7.829039574E0,-1.970427990E0
1.038936489E2,7.580042362E0,-4.000710964E0,-1.462857246E0
1.041442287E2,1.241872406E1,-2.801215887E0,-1.292868853E-1
1.043944728E2,6.564900875E0,-4.079719543E0,3.351882398E-1
1.046446254E2,9.239224434E0,-8.774748802E0,-1.436520964E-1
1.048951747E2,6.505045891E0,-4.091690540E0,-1.247379065E0
1.051453273E2,1.167652130E1,-6.224924564E0,2.485181332E0
1.053967617E2,1.294305420E1,-6.150704384E0,-3.806780577E-1
1.056471279E2,5.492298603E0,-5.272032261E0,-4.716577232E-1
1.058973415E2,8.087613106E0,-5.695806026E0,7.445967197E-1
1.061478603E2,6.483498096E0,-3.119644880E0,-2.729389966E-1
1.063979824E2,1.414973164E1,-5.875370979E0,2.147598982E0
1.066483486E2,7.623138428E0,-4.410119534E0,3.086126089E0
1.068987148E2,9.255983353E0,-8.832210541E0,4.812345505E-1
1.071499355E2,9.155426979E0,-7.852981567E0,-5.267243981E-1
1.074014308E2,7.690176010E0,-5.094861031E0,-1.721431017E0
1.076516445E2,1.236605167E1,-3.876212597E0,-1.527500629E0
1.079019802E2,6.102819920E0,-4.388571739E0,1.197100878E-1
1.081522243E2,8.176198959E0,-8.738836288E0,1.079784989E0
1.084024990E2,5.394136429E0,-4.836287498E0,2.633621916E-2
1.086528957E2,1.219845772E1,-7.764396191E0,1.572990537E0
1.089030178E2,1.203565216E1,-7.797914982E0,3.351882473E-2
1.091545131E2,6.174646378E0,-6.684611320E0,1.532289088E-1
1.094046047E2,7.951143742E0,-7.424419403E0,-6.703764796E-1
1.096550624E2,7.129932880E0,-3.670311213E0,-1.637633920E0
1.099052761E2,1.336922264E1,-3.560178041E0,8.212111592E-1
1.101567409E2,7.254431248E0,-5.942408562E0,3.083731890E0
1.104071071E2,8.362946510E0,-8.609549522E0,2.849099934E-1
1.106572292E2,1.032140350E1,-6.885724068E0,2.035071403E-1
1.109077785E2,8.779537201E0,-5.432443619E0,-8.044517636E-1
1.111579616E2,1.196143150E1,-5.125985622E0,-2.181117773E0
1.114092433E2,6.050147533E0,-4.991910458E0,-2.705447972E-1
1.116594570E2,6.919242859E0,-6.473921299E0,1.149216816E-1
1.119097927E2,6.457161903E0,-3.442862034E0,-3.878606856E-1
1.121601589E2,1.231577396E1,-7.484274387E0,6.081272364E-1
1.124102199E2,1.100853920E1,-7.790732384E0,1.206677675E0
1.126605556E2,7.026981831E0,-6.387730122E0,-8.068459630E-1
1.129105861E2,8.511386871E0,-7.316680431E0,-1.874659896E0
1.131608303E2,6.837840080E0,-3.600879431E0,-1.161187768E0
1.134123561E2,1.040998936E1,-3.430891037E0,1.051054597E0
1.136628139E2,7.366958618E0,-4.321534157E0,1.194706678E0
1.139144313E2,8.085219383E0,-8.082824707E0,1.335964561E0
1.141645839E2,9.801861763E0,-5.923254967E0,-7.900865376E-2
1.144148586E2,8.808267593E0,-4.960785866E0,-4.884171486E-1
1.146664760E2,1.231577396E1,-5.212177277E0,-2.327163935E0
1.149167812E2,5.238513470E0,-4.639962673E0,-3.495534360E-1
1.151670558E2,5.908889771E0,-6.050147533E0,1.175553083E0
1.154173305E2,6.526593685E0,-3.543418407E0,-7.876923680E-1
1.156675441E2,1.276109505E1,-7.642292023E0,2.068590164E0
1.159177272E2,1.103487587E1,-6.452373505E0,1.996764183E0
1.161678798E2,7.848193169E0,-6.919242859E0,5.027823523E-2
1.164181240E2,8.655038834E0,-7.467514992E0,-6.703764796E-1
1.166681545E2,6.770802498E0,-3.371036053E0,-1.596932530E0
1.169184291E2,1.221282291E1,-2.944868088E0,-4.309562966E-2
1.171685207E2,6.569689274E0,-4.271255970E0,1.156399369E0
1.174187648E2,8.090007782E0,-8.353369713E0,1.154005170E0
1.176688869E2,1.014902115E1,-6.208165169E0,-1.125274822E-1
1.179191616E2,9.109937668E0,-4.594472885E0,-1.699883193E-1
1.181694362E2,1.072841740E1,-4.187458992E0,-5.554547906E-1
1.184196498E2,5.758055210E0,-4.204218388E0,-1.024718285E0
1.186698940E2,5.920860767E0,-5.444414616E0,1.735796213E0
1.189199550E2,6.636727333E0,-3.758896589E0,-2.466027737E-1
1.191703212E2,1.482729149E1,-6.162675381E0,1.024718285E0
1.194203517E2,1.158314800E1,-6.279991150E0,1.750161409E0
1.196706264E2,7.630321026E0,-7.764396191E0,6.631938815E-1
1.199211757E2,9.215282440E0,-8.623914719E0,-1.022324085E0
1.201712673E2,7.615955830E0,-4.967968464E0,4.716577232E-1
1.204227016E2,1.289995861E1,-3.995922565E0,-1.656787634E0
1.206731594E2,7.199364662E0,-4.596867085E0,-1.795651317E-1
1.209232204E2,7.491456985E0,-9.131484985E0,5.506663918E-1
1.211746852E2,7.474697590E0,-4.467580318E0,-6.536170840E-1
1.214248073E2,1.250252151E1,-7.711723804E0,1.924938202E0
1.216761196E2,1.369004536E1,-7.750030994E0,2.561795712E-1
1.219264858E2,6.241683960E0,-6.358999729E0,-3.303998411E-1
1.221777065E2,8.427590370E0,-6.993463039E0,-1.333570361E0
1.224280727E2,7.620744228E0,-3.720589399E0,-1.005564705E-1
1.226781948E2,1.458787060E1,-3.471592426E0,1.644816518E0
1.229297512E2,9.445125580E0,-5.166687489E0,2.358288765E0
1.231799037E2,8.228871346E0,-8.671798706E0,9.217676520E-1
1.234302700E2,8.966285706E0,-7.668628216E0,-9.457096457E-1
1.236805751E2,8.813055992E0,-5.650316238E0,-9.337386489E-1
1.239308193E2,1.220563984E1,-4.903325081E0,-1.383848548E0
1.241821010E2,5.796362400E0,-4.809951305E0,3.112462163E-2
1.244321926E2,6.952761650E0,-7.721300602E0,1.242590666E0
1.246824977E2,6.004657745E0,-4.070142746E0,7.182604820E-2
1.249329555E2,1.244506073E1,-8.339004517E0,1.515529633E0
1.251829555E2,1.167173290E1,-7.228095055E0,1.168370485E0
1.254334438E2,5.997475147E0,-6.785167694E0,-6.512228847E-1
1.256834743E2,8.334216118E0,-7.163451672E0,-9.888052940E-1
1.259340846E2,7.125144482E0,-3.679888010E0,-1.177947283E0
1.261860378E2,1.188721180E1,-3.136404276E0,2.236184359E0
1.264366786E2,6.837840080E0,-5.159504890E0,2.408566952E0
1.266867702E2,8.082824707E0,-8.202534676E0,8.188169599E-1
1.269370143E2,8.365341187E0,-6.406883717E0,1.053448766E-1
1.271875026E2,9.342175484E0,-5.403713226E0,-2.394201607E-2
1.274379909E2,1.162145519E1,-5.870582581E0,-1.532289028E0
1.276881740E2,5.928043365E0,-5.262455463E0,2.394201756E-1
1.279396388E2,5.719748020E0,-6.646304131E0,3.998316824E-1
1.281915615E2,6.823474884E0,-3.598485231E0,-1.199495077E0
1.284418361E2,1.440112305E1,-6.770802498E0,1.505952835E0
1.286934535E2,1.076433086E1,-7.043741226E0,2.293645144E0
1.289436367E2,7.297526836E0,-7.970297337E0,4.141969085E-1
1.291951015E2,8.372523308E0,-8.171410561E0,-1.489193439E0
1.294454067E2,7.910442352E0,-4.118026733E0,-1.077390790E0
1.296956508E2,1.188481712E1,-3.172317266E0,3.112462163E-2
1.299458950E2,6.337451935E0,-4.891354084E0,4.189853072E-1
1.301960170E2,8.726864815E0,-9.255983353E0,2.226607651E-1
1.304461086E2,7.570465565E0,-4.675876141E0,9.409212470E-1
1.306963832E2,1.076911926E1,-6.754043102E0,1.017535686E0
1.309464748E2,1.319923401E1,-6.299144745E0,-8.954314590E-1
1.311964748E2,6.373364925E0,-5.999869347E0,-4.118026793E-1
1.314466274E2,6.986280441E0,-5.963956356E0,-5.458779931E-1
1.316967800E2,7.747636795E0,-3.038241863E0,-3.064578176E-1
1.319470546E2,1.376187134E1,-5.710171223E0,1.139639974E0
1.321973293E2,1.018253994E1,-5.734113216E0,2.710236311E0
1.324476039E2,8.111555099E0,-8.197746277E0,-2.873041928E-1
1.326977260E2,9.038111687E0,-8.755595207E0,-1.221042871E0
1.329481838E2,9.229647636E0,-3.890577793E0,-9.193734527E-1
1.331982143E2,1.193509579E1,-4.343081951E0,-1.089361787E0
1.334483364E2,5.410895824E0,-4.867412090E0,4.788403399E-3
1.336984889E2,7.876923561E0,-8.353369713E0,9.265560508E-1
1.339485613E2,7.333439827E0,-4.498704910E0,5.578489900E-1
1.341988665E2,1.152568722E1,-7.383718014E0,8.188169599E-1
1.344488970E2,1.268208599E1,-6.825869083E0,-5.267243981E-1
1.346989580E2,6.658275127E0,-6.631938934E0,7.278373241E-1
1.349491411E2,7.333439827E0,-6.675034523E0,-1.082179189E0
1.351992632E2,8.022970200E0,-3.265691042E0,-9.265560508E-1
1.354494768E2,1.221282291E1,-4.738125324E0,1.699883223E0
1.356997515E2,8.166622162E0,-5.090072632E0,2.169146776E0
1.359500872E2,7.718906403E0,-8.882488251E0,1.074996591E0
1.362018572E2,9.466673851E0,-6.325480938E0,7.900865376E-2
1.364519488E2,8.918401718E0,-5.236119270E0,-5.602431893E-1
1.367019488E2,1.195185471E1,-5.360617638E0,-1.101332784E0
1.369521319E2,5.374982834E0,-4.654327869E0,3.280056417E-1
1.372021929E2,6.564900875E0,-6.653486729E0,1.465251446E0
1.374523760E2,6.088454723E0,-3.519476414E0,-3.495534360E-1
1.377025896E2,1.349850941E1,-6.684611320E0,2.954444885E0
1.379526812E2,1.126232433E1,-6.447585106E0,1.766920805E0
1.382046648E2,7.697358608E0,-7.352593422E0,-2.873042040E-2
1.384566179E2,7.972691536E0,-6.998251438E0,-1.893813491E0
1.387069536E2,7.671022415E0,-3.497928619E0,-7.326257229E-1
1.389588152E2,1.274433517E1,-1.127668977E0,3.734954596E-1
1.392107378E2,5.532999992E0,-3.687070608E0,-2.130839527E-1
1.394608599E2,7.328651428E0,-8.271966934E0,2.501940727E0
1.397110125E2,7.462726593E0,-4.817133904E0,-1.096544385E0
1.399613482E2,1.161187840E1,-5.226542473E0,1.173158810E-1
1.402115923E2,1.338358784E1,-8.140285492E0,4.788403511E-1
1.404617144E2,5.645527840E0,-5.317522049E0,0.000000000E0
1.407118059E2,8.164227486E0,-6.789956093E0,-1.161187768E0
1.409619280E2,8.269572258E0,-2.322375536E0,-1.223437071E0
1.412119585E2,1.225591850E1,-4.240131378E0,2.279279947E0
1.414621416E2,8.142680168E0,-5.463568211E0,1.678335428E0
1.417122027E2,7.374141216E0,-8.674192429E0,5.698199868E-1
1.419624163E2,1.080263805E1,-7.237671852E0,1.987187415E-1
1.422124468E2,9.739612579E0,-3.818751812E0,-1.127668977E0
1.424624468E2,1.318008041E1,-5.707777023E0,-1.429338455E0
1.427125078E2,5.451597214E0,-4.709394932E0,-5.961562395E-1
1.429626299E2,6.157886982E0,-6.155492783E0,1.867477298E-1
1.432128435E2,8.056488991E0,-2.360682964E0,-2.070984364E0
1.434630573E2,1.429338455E1,-5.858611584E0,5.434837937E-1
1.437132099E2,1.018732834E1,-6.208165169E0,1.728613615E0
1.439634541E2,7.735665798E0,-7.513004780E0,-1.795651317E-1
1.442136067E2,9.191340446E0,-8.978256226E0,-1.182735682E0
1.444638508E2,7.805097580E0,-3.995922565E0,-1.446097851E0
1.447140949E2,1.334288597E1,-3.490746021E0,-1.211466074E0
1.449641255E2,5.327098846E0,-4.326322556E0,4.525041282E-1
1.452143696E2,7.898471355E0,-7.862558365E0,1.051054597E0
1.454646443E2,7.649474621E0,-3.785232782E0,-1.436520964E-1
1.457148579E2,1.149695683E1,-7.084442616E0,1.623268723E0
1.459650715E2,1.264617348E1,-6.864176273E0,9.816227108E-2
1.462154072E2,5.918466568E0,-6.466738701E0,-3.591302410E-2
1.464655598E2,7.108384609E0,-6.734889507E0,-5.027823448E-1
1.467158650E2,7.946355343E0,-2.777273893E0,-3.280056417E-1
1.469663838E2,1.300530338E1,-4.675876141E0,5.003881454E-1
1.472165058E2,8.279149055E0,-4.783615112E0,1.654393315E0
1.474678181E2,7.678205013E0,-8.827422142E0,9.097966552E-1
1.477182758E2,9.473855972E0,-6.720524311E0,-4.884171486E-1
1.479685200E2,9.624691010E0,-5.403713226E0,-8.690952063E-1
1.482197712E2,1.158314800E1,-5.918466568E0,-1.735796213E0
1.484701985E2,5.451597214E0,-5.149928093E0,-6.129156351E-1
1.487201985E2,6.509834290E0,-6.220136166E0,9.552865028E-1
1.489716794E2,6.955155849E0,-3.600879431E0,-6.847416759E-1
1.492219235E2,1.531091976E1,-4.486733913E0,-3.830722719E-2
1.494725644E2,1.026873112E1,-6.528987885E0,2.741360903E0
1.497243954E2,6.519411087E0,-8.022970200E0,9.576806426E-2
1.499746396E2,9.895236015E0,-9.105149269E0,-6.248866320E-1
1.502250668E2,7.781155586E0,-4.431667328E0,-1.527500629E0
1.504753720E2,1.321838760E1,-3.629609823E0,1.149216816E-1
1.507266537E2,6.133944988E0,-5.482721806E0,-1.675941199E-1
1.509767453E2,7.517793179E0,-7.580042362E0,1.077390790E0
1.512270505E2,7.144298077E0,-4.390965939E0,-1.915361360E-2
1.514776913E2,1.344344234E1,-7.900865555E0,4.216189384E0
1.517278439E2,1.203086376E1,-7.450755596E0,3.926490843E-1
1.519783322E2,7.790732384E0,-6.823474884E0,-1.340752989E-1
1.522285153E2,8.259995461E0,-7.627926826E0,-1.122880578E0
1.524789120E2,8.422801971E0,-3.907337189E0,-1.067813993E0
1.527291562E2,1.129823780E1,-2.506729126E0,8.355764151E-1
1.529803769E2,7.663839817E0,-4.594472885E0,7.182605267E-1
1.532306821E2,9.279925346E0,-9.425971985E0,2.466027737E-1
1.534807431E2,7.663839817E0,-5.374982834E0,4.836287498E-1
1.537311398E2,1.136288166E1,-7.249642849E0,1.228225470E0
1.539814145E2,1.263659668E1,-6.042964935E0,-8.643068075E-1
1.542315976E2,5.947196960E0,-5.743690014E0,-7.613561153E-1
1.544821164E2,7.965508938E0,-5.518634796E0,-5.291185975E-1
1.547324826E2,6.943184853E0,-2.973598480E0,-1.699883223E0
1.549827267E2,1.530852604E1,-5.013458252E0,2.772485495E0
1.552342526E2,9.090784073E0,-4.908113480E0,2.585737944E0
1.554846188E2,8.104372978E0,-8.623914719E0,1.101332754E-1
1.557351071E2,8.935160637E0,-7.656657219E0,1.675941236E-2
1.559854123E2,1.000297451E1,-5.410895824E0,-1.175553083E0
1.562356564E2,1.233253288E1,-5.147533417E0,-2.027888775E0
1.564871823E2,5.925649166E0,-5.204994678E0,-5.410895944E-1
1.567373349E2,6.495469093E0,-6.181828976E0,2.549824715E0
1.569880063E2,5.951985359E0,-3.519476414E0,2.346317619E-1
1.572384030E2,1.257434750E1,-6.756437302E0,2.315192938E0
1.574885251E2,1.157357121E1,-6.588842869E0,1.893813491E0
1.577386777E2,6.938396454E0,-7.797914982E0,-6.368576288E-1
1.579889523E2,7.872135162E0,-7.632715225E0,-1.912967205E0
1.582392270E2,8.164227486E0,-3.696647406E0,-1.881842494E0
1.584908444E2,1.304600525E1,-3.059789658E0,-1.527500629E0
1.587409970E2,7.625532627E0,-5.140350819E0,6.464344859E-1
1.589914243E2,7.474697590E0,-8.911218643E0,1.041477680E0
1.592416074E2,9.409213066E0,-4.936843872E0,9.600749016E-1
1.594928891E2,1.176271248E1,-6.866570473E0,2.008735180E0
1.597441708E2,1.349132633E1,-6.962338448E0,-1.149216771E0
1.599944455E2,6.095637321E0,-7.173028469E0,5.027823523E-2
1.602449033E2,7.560888767E0,-6.459556103E0,-1.711854219E0
1.604968564E2,9.457097054E0,-3.940855980E0,-1.319205165E0
1.607471616E2,1.399410915E1,-2.877830505E0,-2.513911724E-1
1.609975278E2,7.745242596E0,-5.504269600E0,1.833958507E0
1.612477719E2,7.445967197E0,-8.789113998E0,-6.105214357E-1
1.614982602E2,9.758766174E0,-6.172252178E0,5.817909837E-1
1.617485043E2,1.083855152E1,-6.435614109E0,-1.388636976E-1
1.619989011E2,1.354878712E1,-5.963956356E0,-1.510741234E0
1.622491147E2,5.559336185E0,-5.841852188E0,-6.296750307E-1
1.625002744E2,6.936002254E0,-6.069301128E0,1.118092179E0
1.627518613E2,7.034164429E0,-3.323152065E0,1.819593310E-1
1.630037839E2,1.541147614E1,-5.449203014E0,1.872265697E0
1.632542722E2,1.005564690E1,-5.240907669E0,2.784456491E0
1.635045163E2,7.759607792E0,-8.935160637E0,3.399766386E-1
1.637549130E2,9.519346237E0,-7.709329605E0,-1.972822189E0
1.640053708E2,8.676587105E0,-4.568136692E0,-9.050082564E-1
1.642554929E2,1.128866100E1,-3.957615376E0,-1.292868972E0
1.645058286E2,6.732495308E0,-5.219359875E0,2.777273953E-1
1.647571103E2,7.359776020E0,-9.363722801E0,1.264138460E0
1.650090024E2,7.244854450E0,-4.378994942E0,7.469909191E-1
1.652597653E2,1.156878281E1,-6.947973251E0,1.213860273E0
1.655115659E2,1.385045719E1,-7.022193432E0,-6.153098345E-1
1.657618405E2,5.846640587E0,-6.069301128E0,-7.278373241E-1
1.660132748E2,8.248024940E0,-6.794744492E0,-2.346317619E-1
1.662635800E2,7.510610580E0,-2.650381327E0,-4.261679053E-1
1.665140073E2,1.436760426E1,-5.473145008E0,8.643068075E-1
1.667642297E2,7.958326340E0,-5.355829239E0,2.461239338E0
1.670145349E2,9.057265282E0,-8.418013573E0,-3.280056417E-1
1.672651452E2,8.944737434E0,-7.541735172E0,-1.383848548E0
1.675153283E2,8.078036308E0,-4.460397720E0,-4.118026793E-1
1.677658166E2,1.142034245E1,-5.116408825E0,-1.929726601E0
1.680160302E2,5.597643375E0,-4.881777287E0,-2.154781520E-1
1.682663049E2,8.106766701E0,-7.292738438E0,1.029506698E-1
1.685168237E2,6.794744492E0,-3.818751812E0,3.878606856E-1
1.687668237E2,1.258631802E1,-6.622362137E0,2.044648170E0
1.690175561E2,1.165736771E1,-6.864176273E0,1.015141487E0
1.692676477E2,7.189787865E0,-6.567295074E0,-6.560112834E-1
1.695181054E2,8.046912193E0,-7.896077156E0,-1.003170490E0
1.697683496E2,8.130708694E0,-2.614468336E0,-1.137245774E0
1.700186242E2,1.202846909E1,-2.427720547E0,6.416460276E-1
1.702690515E2,6.514622688E0,-4.671087742E0,7.685387731E-1
1.705190515E2,7.642292023E0,-9.318233490E0,2.082955539E-1
1.707694177E2,9.222464561E0,-5.051765442E0,-2.418143749E-1
1.710194787E2,1.065419769E1,-6.004657745E0,4.357447028E-1
1.712706994E2,1.348653793E1,-5.813121796E0,-4.261679053E-1
1.715210656E2,5.681440830E0,-5.724536419E0,-1.434126854E0
1.717712182E2,7.314286232E0,-6.069301128E0,9.983820915E-1
1.720218591E2,6.296750546E0,-2.954444885E0,-4.596867263E-1
1.722720422E2,1.328063679E1,-5.252878666E0,1.082179189E0
1.725223779E2,8.755595207E0,-4.929661274E0,2.652775526E0
1.727728662E2,8.609549522E0,-8.669404030E0,4.572925270E-1
1.730230798E2,9.153033257E0,-7.982268333E0,-7.805097699E-1
1.732733850E2,8.271966934E0,-5.295974255E0,-7.852981687E-1
1.735235986E2,1.183453941E1,-5.820304394E0,-1.611297727E0
1.737738427E2,5.114014626E0,-4.891354084E0,-4.070142806E-1
1.740253991E2,6.071695328E0,-7.074865818E0,-4.525041282E-1
1.742756738E2,6.153098583E0,-3.430891037E0,-5.937620401E-1
1.745259790E2,1.529416084E1,-7.201758862E0,1.841141105E0
1.747762231E2,8.851364136E0,-5.932831764E0,1.668758631E0
1.750265283E2,9.306262016E0,-8.808267593E0,-6.943184882E-2
1.752781457E2,8.372523308E0,-9.062053680E0,-7.062895298E-1
1.755283899E2,8.003816605E0,-4.915296078E0,-8.690952063E-1
1.757787866E2,1.241154194E1,-4.862623692E0,-1.223437071E0
1.760290613E2,6.153098583E0,-4.754884720E0,-2.274491638E-1
1.762796106E2,6.500257492E0,-7.297526836E0,-7.182605099E-3
1.765300683E2,7.402871609E0,-3.268085241E0,-6.512228847E-1
1.767801599E2,1.170285797E1,-7.544129372E0,2.051830769E0
1.770307092E2,1.191594219E1,-7.163451672E0,1.271321058E0
1.772809228E2,6.715735912E0,-6.957550049E0,-5.650315881E-1
1.775315637E2,8.573636055E0,-6.564900875E0,-7.733271718E-1
1.777834863E2,7.635109425E0,-3.861847401E0,-1.963245422E-1
1.780336084E2,1.313459015E1,-2.073378563E0,8.978256583E-1
1.782842187E2,7.127538681E0,-5.058948040E0,5.985504389E-1
1.785344018E2,9.598354340E0,-9.167398453E0,-2.418143749E-1
1.787848901E2,6.521805286E0,-4.876988888E0,-1.580173075E-1
1.790352258E2,1.151132202E1,-7.386112213E0,2.391807556E0
1.792854089E2,1.144907284E1,-6.088454723E0,-1.185129881E0
1.795361413E2,6.588842869E0,-6.066906929E0,-6.344634295E-1
1.797861719E2,7.711723804E0,-6.416460514E0,-1.108515382E0
1.800367212E2,7.256825447E0,-2.892195702E0,-1.142034173E0
1.802869653E2,1.367568016E1,-4.244919777E0,1.426944256E0
1.805383081E2,7.424419403E0,-5.025429249E0,1.309628367E0
1.807886743E2,9.425971985E0,-8.726864815E0,-7.445967197E-1
1.810397729E2,8.413225174E0,-5.623979568E0,-2.130839527E-1
1.812911767E2,1.057518864E1,-6.636727333E0,-3.806780577E-1
1.815413261E2,1.250730991E1,-6.124367714E0,-1.347935557E0
1.817917229E2,5.722142220E0,-5.925649166E0,-3.256114423E-1
1.820419670E2,6.813898087E0,-6.734889507E0,1.022324085E0
1.822922112E2,5.880159378E0,-3.177105665E0,-1.484405041E0
1.825425774E2,1.498770237E1,-5.959167957E0,4.548983276E-1
1.827927300E2,6.727706909E0,-5.468356609E0,2.628833532E0
1.830431877E2,9.574412346E0,-8.599972725E0,4.309562966E-2
1.832934319E2,8.599972725E0,-6.773196697E0,-4.812345505E-1
1.835445915E2,9.447520256E0,-5.188235283E0,-7.422025204E-1
1.837961174E2,1.179383755E1,-5.073313236E0,-2.114080191E0
1.840464531E2,5.827486992E0,-5.142745018E0,-6.105214357E-1
1.842968498E2,6.296750546E0,-6.287173748E0,1.836352706E0
1.845470940E2,6.940790653E0,-4.027047157E0,-5.386953950E-1
1.847973686E2,1.385045719E1,-6.768408298E0,1.819593310E0
1.850476738E2,1.028070164E1,-6.883329868E0,2.463633537E0
1.852979485E2,8.820239067E0,-8.267178535E0,-2.466027737E-1
1.855486809E2,7.132327080E0,-7.797914982E0,-9.337386489E-1
1.857987114E2,8.789113998E0,-3.622427225E0,-8.978256583E-1
1.860490471E2,9.993397713E0,-3.936067581E0,-6.536170840E-1
1.862992607E2,6.414066315E0,-4.752490520E0,1.201889277E0
1.865512749E2,8.607154846E0,-9.334992409E0,9.576807022E-1
1.868021294E2,6.849811077E0,-4.817133904E0,-2.801215947E-1
1.870522209E2,1.228704357E1,-7.091625214E0,1.388636947E0
1.873026482E2,1.280658531E1,-5.961562157E0,-1.266532660E0
1.875529228E2,5.607220173E0,-5.805939198E0,-9.217676520E-1
1.878040520E2,8.441955566E0,-6.986280441E0,-1.350329757E0
1.880546623E2,6.737283707E0,-2.937685490E0,-1.829170108E0
1.883047539E2,1.375708294E1,-4.589684486E0,1.824381709E0
1.885564323E2,8.293514252E0,-5.286397457E0,1.936909199E0
1.888066765E2,8.635885239E0,-8.769960403E0,3.758896589E-1
1.890579887E2,9.653421402E0,-7.551311970E0,-8.283938169E-1
1.893085075E2,9.270348549E0,-5.310339451E0,-5.075707436E-1
1.895587212E2,1.224394703E1,-4.594472885E0,-1.719036818E0
1.898092094E2,5.973533154E0,-5.525817394E0,3.184288144E-1
1.900593315E2,5.626373768E0,-7.594407558E0,1.144428372E0
1.903096672E2,7.639897823E0,-4.079719543E0,-2.370259613E-1
1.905600945E2,1.202128696E1,-7.850587368E0,1.642422318E0
1.908111015E2,1.207395935E1,-6.682217121E0,5.985504389E-2
1.910617119E2,7.189787865E0,-7.536946774E0,-1.268926859E-1
1.913117424E2,7.556100368E0,-7.338228226E0,-1.608903527E0
1.915624138E2,7.493851185E0,-4.175487995E0,-1.551442742E0
1.918125969E2,1.303642845E1,-2.679111719E0,-6.655880809E-1
1.920628716E2,6.936002254E0,-5.372588634E0,1.865083098E0
1.923133598E2,7.584830761E0,-9.117119789E0,8.499416113E-1
1.925635429E2,8.882488251E0,-5.382165432E0,-2.059013397E-1
1.928141838E2,1.047223854E1,-6.878541470E0,7.829039693E-1
1.930661369E2,1.224873543E1,-6.040570736E0,-1.357512355E0
1.933164726E2,5.532999992E0,-5.363011837E0,-9.337386489E-1
1.935665947E2,6.368576527E0,-6.062118530E0,1.867477298E-1
1.938172051E2,7.445967197E0,-3.641580820E0,-1.024718285E0
1.940674492E2,1.431732655E1,-6.339846134E0,5.458779931E-1
1.943177544E2,1.059913063E1,-6.337451935E0,1.742978811E0
1.945680290E2,7.826645374E0,-7.960720539E0,-5.027823523E-2
1.948182732E2,7.809885979E0,-8.001421928E0,-1.266532660E0
1.950685478E2,8.628703117E0,-4.601655483E0,-1.106121182E0
1.953198906E2,1.076433086E1,-3.720589399E0,-1.163581967E0
1.955700432E2,6.426037312E0,-4.790797710E0,4.189853072E-1
1.958204094E2,8.420407295E0,-9.014169693E0,1.125274822E-1
1.960705925E2,6.907271862E0,-4.912901878E0,4.884171486E-1
1.963209587E2,1.255040550E1,-6.799532890E0,8.978256583E-1
1.965713860E2,1.247618484E1,-5.880159378E0,-1.072602391E0
1.968218132E2,6.430825710E0,-6.184223175E0,-4.165911078E-1
1.970721489E2,7.632715225E0,-6.150704384E0,-3.232172430E-1
1.973222710E2,7.125144482E0,-3.011905670E0,-4.501099288E-1
1.975725691E2,1.363976669E1,-6.086060524E0,4.740519226E-1
1.978228438E2,7.931990147E0,-5.329493046E0,1.987187386E0
1.980730269E2,9.430760384E0,-8.810662270E0,-4.788403213E-2
1.983234541E2,7.496245384E0,-7.474697590E0,-8.116343617E-1
1.985753462E2,8.719682693E0,-4.517858505E0,-9.313444495E-1
1.988258650E2,1.159272480E1,-4.951209068E0,-8.810662031E-1
1.990760176E2,5.384559631E0,-4.302380562E0,-2.873041928E-1
1.993273299E2,7.273584843E0,-7.517793179E0,1.723825186E-1
1.995788557E2,6.476315498E0,-4.182670593E0,4.165911078E-1
1.998289778E2,1.332612705E1,-6.928819656E0,1.793257117E0
2.000793745E2,1.183453941E1,-6.890512466E0,7.182605267E-1
2.003294966E2,7.551311970E0,-7.091625214E0,-6.536170840E-1
2.005798018E2,8.501810074E0,-7.316680431E0,-2.267308950E0
2.008300459E2,7.910442352E0,-3.612850428E0,-1.106121182E0
2.010802596E2,1.028788471E1,-3.375824451E0,3.136404157E-1
2.013307784E2,6.904877663E0,-4.197035789E0,8.571242094E-1
2.015809615E2,8.899248123E0,-9.129091263E0,-1.436521020E-2
2.018311751E2,7.592013359E0,-4.175487995E0,-1.963245422E-1
2.020817549E2,1.201410389E1,-7.101202011E0,9.241618514E-1
2.023318465E2,1.295981407E1,-6.229712963E0,-8.906430602E-1
2.025823958E2,6.454767704E0,-6.081272125E0,-1.055842996E0
2.028325789E2,6.967126846E0,-6.392518520E0,-9.888052940E-1
2.030831282E2,8.195352554E0,-3.026270866E0,-6.536170840E-1
2.033334639E2,1.149216843E1,-4.812345505E0,1.920149803E0
2.035835249E2,6.777985096E0,-5.164293289E0,2.398990154E0
2.038341048E2,8.520963669E0,-8.963891029E0,8.762778044E-1
2.040843794E2,7.891288757E0,-5.669469833E0,6.536170840E-1
2.043346846E2,1.125035381E1,-6.294356346E0,5.746084079E-2
2.045848982E2,1.289995861E1,-5.102043629E0,-8.547300100E-1
2.048349287E2,5.966350555E0,-6.239289761E0,-9.504981041E-1
2.050854170E2,7.414842606E0,-5.691017628E0,-1.053448766E-1
2.053356001E2,7.098807812E0,-2.940079689E0,-1.113303781E0
2.055861189E2,1.436281586E1,-4.211400986E0,1.546654344E0
2.058364241E2,9.045293808E0,-4.802768707E0,2.432508945E0
2.060866988E2,7.764396191E0,-8.705317497E0,4.213795066E-1
2.063371260E2,9.739612579E0,-7.965508938E0,-4.572925270E-1
2.065871260E2,9.074024200E0,-4.948814869E0,-3.902548850E-1
2.068381941E2,1.284010410E1,-5.015852451E0,-1.443703651E0
2.070899947E2,5.796362400E0,-4.721365929E0,-7.996633649E-1
2.073404829E2,4.958391666E0,-6.696582317E0,1.549048543E0
2.075908492E2,5.920860767E0,-3.620033026E0,1.628057212E-1
2.078409407E2,1.225352383E1,-7.419631004E0,9.361328483E-1
2.080915205E2,1.067095661E1,-6.536170483E0,1.661576033E0
2.083417952E2,7.900865555E0,-7.441178799E0,-2.250549644E-1
2.085921614E2,8.003816605E0,-7.850587368E0,-1.656787634E0
2.088424666E2,7.572859764E0,-4.039018154E0,-1.422155857E0
2.090925887E2,1.100375080E1,-3.490746021E0,-1.651999205E-1
2.093431075E2,7.161057472E0,-4.496310711E0,5.051765442E-1
2.095932270E2,8.667010307E0,-8.757989883E0,-5.746084079E-2
2.098437763E2,6.603208065E0,-4.800374508E0,-6.943184882E-2
2.100942341E2,1.248815632E1,-7.012616634E0,9.145850539E-1
2.103444782E2,1.184411621E1,-6.940790653E0,-1.173158810E-1
2.105951801E2,6.291962147E0,-5.504269600E0,-7.709329724E-1
2.108454243E2,7.146692276E0,-6.131550789E0,-5.410895944E-1
2.110958820E2,7.412448406E0,-3.435679436E0,-1.414973259E0
2.113461567E2,1.436042213E1,-3.306392431E0,7.924807668E-1
2.115980488E2,9.777919769E0,-6.107608318E0,2.638410330E0
2.118485981E2,6.641515732E0,-8.595184326E0,-1.556231081E-1
2.120986286E2,1.113782597E1,-8.975862503E0,-1.302445769E0
2.123492390E2,9.143456459E0,-5.683835030E0,-5.386953950E-1
2.125993000E2,1.214817905E1,-5.090072632E0,-1.704671621E0
2.128517109E2,6.538564682E0,-6.493074894E0,5.554547906E-1
2.131028400E2,6.840234280E0,-7.108384609E0,8.810662031E-1
2.133529621E2,7.029376030E0,-4.572925091E0,5.506663918E-1
2.136034504E2,1.296460247E1,-7.062894821E0,1.783680320E0
2.138536030E2,1.269405746E1,-8.633491516E0,1.043871999E0
2.141039692E2,7.297526836E0,-7.362170219E0,-3.016694188E-1
2.143543659E2,8.774748802E0,-7.970297337E0,-1.335964561E0
2.146046101E2,8.719682693E0,-4.541800499E0,-3.064578176E-1
2.148562580E2,1.272278786E1,-2.463633537E0,3.112462163E-1
2.151063801E2,7.319074631E0,-6.576871872E0,1.668758631E0
2.153568073E2,8.049305916E0,-8.786720276E0,1.134851575E0
2.156072651E2,9.129091263E0,-5.808333397E0,1.412578970E-1
2.158576923E2,1.221282291E1,-6.895300865E0,4.979939461E-1
2.161083027E2,1.343626022E1,-6.787561893E0,-1.781286120E0
2.163584858E2,6.256049156E0,-7.350199223E0,-1.302445769E0
2.166089436E2,7.000645638E0,-6.203376770E0,1.532289088E-1
2.168594624E2,8.039729118E0,-4.541800499E0,-3.280056417E-1
2.171094929E2,1.478658962E1,-4.754884720E0,6.919242740E-1
2.173599812E2,9.746794701E0,-6.337451935E0,1.889025092E0
2.176100117E2,8.303091049E0,-8.482656479E0,-4.118026793E-1
2.178602253E2,8.829815865E0,-7.963114738E0,-8.259995580E-1
2.181105610E2,9.425971985E0,-5.298368454E0,-2.106897593E0
2.183616291E2,1.184172153E1,-5.090072632E0,-1.874659896E0
2.186133381E2,5.942408562E0,-5.197812080E0,5.985504389E-2
2.188635517E2,7.024587631E0,-7.366958618E0,1.398213744E0
2.191138569E2,6.059724331E0,-5.157110691E0,6.153098345E-1
2.193640705E2,1.410663605E1,-6.780379295E0,1.108515382E0
2.196143147E2,1.234929276E1,-7.783549786E0,1.106121182E0
2.198647419E2,6.964732647E0,-7.522581577E0,-1.383848548E0
2.201149250E2,6.854599476E0,-7.522581577E0,-1.558625340E0
2.203655354E2,8.655038834E0,-4.395754337E0,-3.567360640E-1
2.206158100E2,1.164300251E1,-3.859453201E0,2.849099934E-1
2.208666645E2,7.101202011E0,-5.475539207E0,3.177105665E0
2.211168171E2,8.427590370E0,-8.887276649E0,9.265560508E-1
2.213668781E2,8.528146744E0,-6.766014099E0,8.379705995E-2
2.216174274E2,1.152808094E1,-6.052541733E0,6.943184882E-2
2.218676105E2,1.195424938E1,-6.758831501E0,-2.600103140E0
2.221190754E2,6.157886982E0,-6.150704384E0,3.423708379E-1
2.223691364E2,6.936002254E0,-6.433219910E0,9.361328483E-1
2.226194111E2,6.892906666E0,-3.967192173E0,-6.296750307E-1
2.228698078E2,1.438436413E1,-6.804321289E0,1.343147159E0
2.231201130E2,9.311050415E0,-6.689399719E0,2.470816135E0
2.233706318E2,7.704541206E0,-8.271966934E0,-1.388636976E-1
2.236208454E2,9.009381294E0,-8.391676903E0,-1.460463047E0
2.238711811E2,7.685387611E0,-4.821922302E0,-9.337386489E-1
2.241212421E2,1.171482849E1,-4.187458992E0,-1.331176162E0
2.243715473E2,7.393294811E0,-4.754884720E0,7.757213712E-1
2.246222797E2,7.886500359E0,-9.052476883E0,2.561795712E-1
2.248726154E2,8.111555099E0,-5.209783077E0,-5.602431893E-1
2.251230427E2,1.169328117E1,-6.981492043E0,4.620809257E-1
2.253733173E2,1.269405746E1,-7.625532627E0,-4.979939461E-1
2.256251484E2,6.263231754E0,-6.246472359E0,-8.427590132E-1
2.258757893E2,7.433996201E0,-7.252037048E0,-1.393425345E0
2.261258198E2,7.946355343E0,-3.406949043E0,2.633621916E-2
2.263762470E2,1.310825443E1,-3.739742994E0,1.058237195E0
2.266263081E2,7.934384346E0,-5.164293289E0,2.286462545E0
2.268767963E2,8.990227699E0,-9.220070839E0,5.913678408E-1
2.271271626E2,8.190564156E0,-8.808267593E0,-1.434126854E0
2.273773151E2,8.540117264E0,-4.833893299E0,-2.494758129E0
2.276278339E2,1.129584408E1,-4.881777287E0,-1.678335428E0
2.278779560E2,6.682217121E0,-4.927267075E0,5.817909837E-1
2.281291234E2,7.038952827E0,-8.757989883E0,9.241618514E-1
2.283796727E2,7.405265808E0,-5.396530628E0,6.703764796E-1
2.286296727E2,1.255279922E1,-6.962338448E0,7.637503147E-1
2.288802830E2,1.017775154E1,-8.418013573E0,2.130839586E0
2.291303441E2,7.010222435E0,-6.263231754E0,-1.154005170E0
2.293810460E2,8.343792915E0,-7.256825447E0,-1.699883223E0
2.296313206E2,7.429207802E0,-4.134786129E0,4.381389022E-1
2.298815037E2,1.366849709E1,-2.930502892E0,5.865794420E-1
2.301316563E2,7.496245384E0,-4.786009312E0,2.966415882E0
2.303818394E2,7.769184589E0,-8.204929352E0,7.709329724E-1
2.306322056E2,8.224082947E0,-6.325480938E0,3.711012602E-1
2.308826024E2,9.217676163E0,-6.289567947E0,-1.594538331E0
2.311337925E2,1.076193619E1,-6.773196697E0,-1.604115129E0
2.313844334E2,5.576095581E0,-5.425261021E0,-5.291185975E-1
2.316346470E2,6.220136166E0,-7.560888767E0,1.771709323E-1
2.318852574E2,6.641515732E0,-4.029441357E0,-5.123591423E-1
2.321354100E2,1.352005672E1,-5.614402771E0,1.345541358E0
2.323867222E2,9.612719536E0,-7.314286232E0,2.667140722E0
2.326369664E2,7.218518257E0,-7.503427982E0,-1.915361285E-1
2.328882786E2,8.659827232E0,-8.944737434E0,-6.057330370E-1
2.331386143E2,7.503427982E0,-4.185064793E0,-1.065419793E0
2.333887669E2,1.342668343E1,-4.819528103E0,-9.983820915E-1
2.336403538E2,6.576871872E0,-4.963180065E0,-1.628057212E-1
2.338904149E2,7.113173485E0,-8.480262756E0,1.651999205E-1
2.341418492E2,7.275979042E0,-4.577713490E0,-3.447650373E-1
2.343920323E2,1.233732128E1,-7.161057472E0,7.110779285E-1
2.346432221E2,1.066856289E1,-7.031770229E0,9.409212470E-1
2.348937104E2,7.378929615E0,-6.344634533E0,-2.609679997E-1
2.351439240E2,7.728483200E0,-7.273584843E0,-5.985504389E-1
2.353953279E2,7.144298077E0,-3.552995205E0,-1.051054597E0
2.356453889E2,1.275151825E1,-4.005499363E0,2.202665508E-1
2.358958161E2,7.742848396E0,-4.098873138E0,1.386242747E0
2.361459992E2,8.427590370E0,-8.573636055E0,1.060631394E0
2.363973725E2,7.611167431E0,-6.418854713E0,-2.394201607E-2
2.366476472E2,9.993397713E0,-6.169857979E0,-2.777273953E-1
2.368988679E2,1.165497398E1,-6.308721542E0,-1.364694953E0
2.371493257E2,5.820304394E0,-5.600037575E0,-4.668693244E-1
2.373993257E2,5.389348030E0,-6.169857979E0,1.814804912E0
2.376499055E2,6.677428722E0,-3.983951569E0,-6.943184882E-2
2.378999970E2,1.340752983E1,-6.184223175E0,1.338358760E0
2.381503327E2,1.093431950E1,-6.385335922E0,2.097320795E0
2.384007600E2,7.003039837E0,-7.943961143E0,5.770025849E-1
2.386509126E2,8.109161377E0,-8.497021675E0,-1.132457376E0
2.389014619E2,8.140285492E0,-3.722983599E0,-2.466027737E0
2.391515229E2,1.340274143E1,-2.147598982E0,-7.110779285E-1
2.394019196E2,6.801927090E0,-5.489904404E0,1.419761658E0
2.396523164E2,8.034940720E0,-8.894459724E0,7.589619160E-1
2.399026521E2,8.090007782E0,-5.415684223E0,-7.972691655E-1
2.401528962E2,1.099178028E1,-5.877765179E0,9.313444495E-1
2.404030793E2,1.224634171E1,-7.896077156E0,1.771709323E-1
2.406535371E2,5.849034786E0,-5.837063789E0,-4.932055473E-1
2.409036897E2,6.722918510E0,-5.420472622E0,4.572925270E-1
2.411539033E2,7.173028469E0,-3.521870613E0,-8.858546615E-2
2.414044526E2,1.268687439E1,-7.414842606E0,6.775590777E-1
2.416544831E2,8.923190117E0,-5.834669590E0,2.552218914E0
2.419048799E2,8.537723541E0,-8.334216118E0,4.764461517E-1
2.421550630E2,8.219294548E0,-7.501033783E0,-1.527500629E0
2.424055818E2,8.147468567E0,-5.044582844E0,-5.267243981E-1
2.426556428E2,1.191833591E1,-3.459621429E0,-1.158793569E0
2.429059175E2,6.507440090E0,-4.572925091E0,3.351882473E-2
2.431562226E2,8.492233276E0,-9.423578262E0,1.034295082E0
2.434064057E2,6.924031258E0,-4.642356873E0,3.830722570E-1
2.436568635E2,1.102529907E1,-6.306327343E0,1.125274777E0
2.439069550E2,1.220085144E1,-6.751648903E0,3.351882398E-1
2.441579011E2,6.133944988E0,-6.007051945E0,-2.202665508E-1
2.444095490E2,8.307879448E0,-7.345410824E0,4.165911078E-1
2.446597932E2,7.498639584E0,-3.224989653E0,-1.027112484E0
2.449099763E2,1.259350109E1,-3.687070608E0,6.751648784E-1
2.451615937E2,7.326257229E0,-4.881777287E0,9.768342972E-1
2.454116884E2,7.740454197E0,-8.410830498E0,9.145850539E-1
2.456635195E2,8.767566681E0,-5.913678169E0,-4.644751251E-1
2.459154421E2,1.000536919E1,-5.899312973E0,-2.059013397E-1
2.461668764E2,1.105881786E1,-6.914454460E0,1.077390760E-1
2.464171816E2,5.691017628E0,-5.317522049E0,-9.002198577E-1
2.466673037E2,5.813121796E0,-6.220136166E0,2.351106167E0
2.469178530E2,6.493074894E0,-3.593696833E0,-6.679822803E-1
2.471678530E2,1.507149982E1,-5.322310448E0,-1.891419291E-1
2.474178530E2,9.991003990E0,-6.694188118E0,2.027888775E0
2.476679750E2,7.642292023E0,-7.738059998E0,2.394201700E-3
2.479184023E2,9.232041359E0,-8.659827232E0,-1.352723956E0
2.481703249E2,8.681375504E0,-4.608838081E0,-8.451532125E-1
2.484206301E2,1.204044056E1,-3.976768970E0,-1.187524080E0
2.486726137E2,7.108384609E0,-5.149928093E0,2.370259613E-1
2.489245974E2,7.354987621E0,-8.276755333E0,9.935936928E-1
2.491746889E2,8.221688271E0,-4.527435303E0,3.687070608E-1
2.494246889E2,1.221042824E1,-7.156269073E0,1.352723956E0
2.496765200E2,1.216972733E1,-7.838616371E0,1.362300754E0
2.499267641E2,6.509834290E0,-6.938396454E0,-8.978256583E-1
2.501768862E2,7.520187378E0,-7.333439827E0,-7.134721279E-1
2.504271608E2,9.404424667E0,-4.517858505E0,-1.029506683E0
2.506789614E2,1.326148319E1,-3.354276657E0,9.097966552E-2
2.509293276E2,8.293514252E0,-5.868188381E0,1.132457376E0
2.511793886E2,7.079654217E0,-8.367734909E0,2.777273953E-1
2.514295412E2,8.327033043E0,-7.603984833E0,7.182604820E-2
2.516812807E2,1.078587818E1,-5.173870087E0,-6.727706790E-1
2.519332644E2,1.062786102E1,-6.270414352E0,-3.294421434E0
2.521834475E2,6.823474884E0,-6.121973515E0,4.309563041E-1
2.524336306E2,4.053383350E0,-6.217741966E0,-3.782838583E-1
2.526854921E2,8.836998940E0,-4.491522312E0,6.344634295E-1
2.529355532E2,1.414015484E1,-5.887341976E0,5.793967843E-1
2.531856447E2,9.440337181E0,-7.407660007E0,2.624045134E0
2.534357668E2,8.030152321E0,-8.183381081E0,-4.860229492E-1
2.536877199E2,7.266402245E0,-8.614337921E0,-1.735796213E0
2.539379946E2,1.052251625E1,-4.905719280E0,-1.539471745E0
2.541899477E2,1.227507210E1,-3.847482204E0,-1.817199111E0
2.544400087E2,6.488286495E0,-4.750096321E0,-1.699883193E-1
2.546901003E2,7.884106159E0,-8.456320763E0,5.817909837E-1
2.549401918E2,6.687005520E0,-4.525041103E0,-7.900865376E-2
2.551903749E2,1.278982544E1,-7.015010834E0,1.977610588E0
2.554405275E2,1.303403378E1,-6.567295074E0,5.243301988E-1
2.556907412E2,7.603984833E0,-6.895300865E0,2.011129409E-1
2.559425722E2,6.909666061E0,-7.228095055E0,-6.105214357E-1
2.561926027E2,9.093177795E0,-3.423708439E0,-9.720458984E-1
2.564426638E2,1.239478207E1,-3.806780815E0,2.944868207E-1
2.566928164E2,7.213729858E0,-4.783615112E0,9.768342972E-1
2.569429689E2,7.826645374E0,-8.499416351E0,-4.309562966E-2
2.571948610E2,9.548076630E0,-7.201758862E0,-4.165911078E-1
2.574449221E2,9.112331390E0,-5.090072632E0,-4.381389022E-1
2.576969057E2,1.147301483E1,-5.949591160E0,-1.355118155E0
2.579473024E2,7.029376030E0,-5.382165432E0,-4.620809257E-1
2.581973330E2,3.878606796E0,-6.856993675E0,2.059013397E-1
2.584473635E2,8.592789650E0,-4.256890774E0,5.937620401E-1
2.586992861E2,1.296460247E1,-5.348646641E0,1.613691926E0
2.589511055E2,9.507374763E0,-7.029376030E0,2.920926094E0
2.592012886E2,8.322244644E0,-8.398859978E0,1.460463107E-1
2.594532722E2,7.857769966E0,-8.420407295E0,-1.843535304E0
2.597032722E2,9.294290543E0,-4.343081951E0,3.351882473E-2
2.599552254E2,1.238999367E1,-4.046200752E0,4.070143029E-2
2.602071785E2,6.682217121E0,-4.970362663E0,-3.040636182E-1
2.604573616E2,7.678205013E0,-8.899248123E0,9.145850539E-1
2.607074531E2,7.611167431E0,-3.201047659E0,-3.112462163E-1
2.609576362E2,1.236844635E1,-5.923254967E0,1.675941229E0
2.612094673E2,1.222718811E1,-6.299144745E0,1.719036818E0
2.614597420E2,6.054935932E0,-6.744466305E0,2.154781520E-1
2.617100776E2,7.433996201E0,-7.795520782E0,-8.954314590E-1
2.619600776E2,7.654263020E0,-3.835511208E0,-5.985504389E-1
2.622103218E2,1.279461384E1,-3.337517262E0,-3.926490843E-1
2.624603523E2,8.410830498E0,-5.183446884E0,5.961562395E-1
2.627104133E2,7.359776020E0,-8.446743965E0,1.316810995E-1
2.629604439E2,9.746794701E0,-6.323086739E0,-7.374141216E-1
2.632104744E2,1.017535686E1,-5.477933407E0,7.781155705E-1
2.634605659E2,1.210029507E1,-5.734113216E0,-1.096544385E0
2.637109016E2,6.967126846E0,-6.086060524E0,5.027823448E-1
2.639611152E2,5.018246651E0,-6.734889507E0,7.900865376E-2
2.642112068E2,7.378929615E0,-3.715801001E0,-5.746084079E-2
2.644612068E2,1.354399872E1,-6.435614109E0,-3.830722719E-2
2.647112678E2,9.581595421E0,-6.876147270E0,2.118868589E0
2.649613899E2,7.805097580E0,-7.627926826E0,2.202665508E-1
2.652114815E2,7.273584843E0,-8.245630264E0,-1.412579060E0
2.654616035E2,8.415618896E0,-3.809175014E0,-1.228225470E0
2.657117256E2,1.192312431E1,-4.029441357E0,1.675941236E-2
2.659617256E2,8.243236542E0,-4.989516258E0,5.243301988E-1
2.662117256E2,7.292738438E0,-8.757989883E0,2.992752194E-1
2.664617866E2,9.461885452E0,-6.596025467E0,1.405396342E0
2.667119697E2,1.042914295E1,-5.643133640E0,2.264914751E0
2.669620308E2,1.224394703E1,-7.151480675E0,7.924807668E-1
2.672121834E2,5.798756599E0,-5.734113216E0,-1.580173075E-1
2.674621834E2,6.002263546E0,-5.406107426E0,1.936909199E0
2.677123054E2,8.379706383E0,-3.349488258E0,2.001552582E0
2.679624885E2,1.216015053E1,-5.829881191E0,4.630385876E0
2.682126411E2,9.334992409E0,-6.517016888E0,4.187458992E0
2.684626411E2,6.655880928E0,-6.289567947E0,9.816227108E-2
2.687145332E2,9.516951561E0,-5.386953831E0,8.762778044E-1
2.689647774E2,8.058882713E0,-2.207453966E0,1.857900500E0
2.692148384E2,1.161906052E1,-3.253720045E0,5.760449409E0
2.694649910E2,7.237671852E0,-4.077325344E0,8.810662031E-1
2.697150520E2,8.707711220E0,-6.133944988E0,1.383848548E0
2.699652656E2,9.361329079E0,-3.349488258E0,2.157175779E0
2.702153877E2,1.087925243E1,-1.477222443E0,3.107673883E0
2.704669136E2,1.226549530E1,-4.479551315E0,3.193865061E0
2.707188667E2,5.430049419E0,-2.980781078E0,1.333570361E0
2.709691109E2,1.016338634E1,-2.849100113E0,3.215412855E0
2.712192024E2,8.655038834E0,5.363011956E-1,5.315127969E-1
2.714694771E2,1.224634171E1,-2.415749550E0,4.498704910E0
2.717195686E2,8.755595207E0,-2.509123325E0,3.641580820E0
2.719709114E2,7.055712223E0,-5.374982834E0,9.481038451E-1
2.722228950E2,1.019451046E1,-8.786720276E0,7.445967197E-1
2.724731697E2,7.671022415E0,-3.629609823E0,-1.776497602E0
2.727251815E2,1.127190113E1,-4.795586109E0,4.094084799E-1
2.729762191E2,7.271190643E0,-4.599261284E0,4.213795066E-1
2.732263717E2,7.982268333E0,-8.616731644E0,1.077390790E0
2.734764632E2,7.498639584E0,-5.032611847E0,1.592144132E0
2.737266464E2,1.118570995E1,-6.574477673E0,1.527500629E0
2.739767684E2,1.011071396E1,-6.842628479E0,-4.022258818E-1
2.742269820E2,6.981492043E0,-5.228936672E0,7.900865376E-2
2.744771346E2,5.607220173E0,-5.875370979E0,1.369483352E0
2.747290572E2,6.931213856E0,-3.481169224E0,-5.410895944E-1
2.749791793E2,1.250730991E1,-7.108384609E0,2.753331959E-1
2.752292403E2,9.454702377E0,-5.861005783E0,2.056619167E0
2.754792709E2,7.651868820E0,-7.639897823E0,2.513911724E-1
2.757295150E2,8.125920296E0,-7.991845131E0,-1.249773264E0
2.759796371E2,8.142680168E0,-4.273650169E0,-7.565677166E-1
2.762297591E2,1.211466026E1,-3.033453465E0,7.469909191E-1
2.764798202E2,6.801927090E0,-4.118026733E0,5.985504389E-1
2.767301559E2,9.789890289E0,-9.481039047E0,1.221042871E-1
2.769804305E2,7.505822182E0,-5.145139217E0,4.070143029E-2
2.772305831E2,9.993397713E0,-6.239289761E0,-6.344634295E-1
2.774819564E2,1.335006905E1,-4.800374508E0,-1.228225470E0
2.777319564E2,5.006275654E0,-5.705382824E0,-5.626373887E-1
2.779821700E2,7.378929615E0,-6.758831501E0,7.086837292E-1
2.782335738E2,6.330269337E0,-3.093308687E0,-3.734954596E-1
2.784836349E2,1.374032402E1,-5.532999992E0,1.651999205E-1
2.787355880E2,9.720458984E0,-6.121973515E0,2.427720547E0
2.789858016E2,7.572859764E0,-7.977479935E0,7.158663273E-1
2.792361373E2,9.153033257E0,-8.262390137E0,-5.674257874E-1
2.794862594E2,8.305485725E0,-3.859453201E0,-1.467645645E0
2.797365646E2,1.228225517E1,-2.671929121E0,-9.744400978E-1
2.799877242E2,7.618350029E0,-4.438849926E0,1.221042871E-1
2.802378768E2,8.358158112E0,-9.018958092E0,2.202665508E-1
2.804893417E2,8.712499619E0,-6.423643112E0,-1.388636976E-1
2.807395553E2,1.081939793E1,-5.540182590E0,-7.565677166E-1
2.809897343E2,1.116895103E1,-6.007051945E0,-1.280897856E0
2.812402225E2,6.763619900E0,-5.784391403E0,4.309562966E-2
2.814921146E2,5.224148273E0,-6.416460514E0,2.020706177E0
2.817422367E2,9.150638580E0,-3.957615376E0,7.924807668E-1
2.819935184E2,1.143470764E1,-6.698976517E0,9.768342972E-1
2.822438236E2,1.010113716E1,-7.436390400E0,1.393425345E0
2.824939457E2,7.977479935E0,-6.797138691E0,-4.309562966E-2
2.827441898E2,7.979874134E0,-6.569689274E0,-3.591302410E-2
2.829943424E2,7.905653954E0,-3.751713991E0,-1.036689281E0
2.832445255E2,1.167412758E1,-5.284003258E0,-9.576806799E-3
2.834946476E2,8.597578049E0,-5.164293289E0,1.896207690E0
2.837448612E2,8.003816605E0,-8.123526573E0,6.943184733E-1
2.839951359E2,8.621520042E0,-7.836222172E0,-2.394201756E-1
2.842454410E2,9.892841339E0,-4.728548527E0,5.985504389E-2
2.844955631E2,1.100375080E1,-3.852270603E0,-1.546654344E0
2.847456547E2,7.371747017E0,-5.465962410E0,3.112462163E-1
2.849958378E2,7.065289021E0,-7.836222172E0,7.302315235E-1
2.852458988E2,9.006986618E0,-5.219359875E0,-8.858546615E-2
2.854961124E2,1.240675354E1,-5.918466568E0,3.280056417E-1
2.857463260E2,1.264856720E1,-6.856993675E0,-2.657563984E-1
2.859966617E2,7.072471619E0,-6.550535679E0,5.267243832E-2
2.862468143E2,6.306327343E0,-5.781997204E0,2.657563984E-1
2.864968754E2,8.748413086E0,-4.450820923E0,2.873041928E-1
2.867469669E2,1.629014778E1,-5.303156853E0,-3.423708379E-1
2.869970585E2,1.076193619E1,-6.327875137E0,2.456450939E0
2.872471195E2,7.302315235E0,-8.137891769E0,-3.734954596E-1
2.874971500E2,9.291896820E0,-8.846575737E0,-1.261744261E0
2.877474857E2,8.959102631E0,-4.441244125E0,-1.733402014E0
2.879976993E2,1.215775585E1,-3.043030262E0,-4.572925270E-1
2.882478824E2,7.625532627E0,-5.858611584E0,1.661576033E0
2.884981571E2,6.248866558E0,-8.635885239E0,8.236053586E-1
2.887484928E2,9.734824181E0,-5.944802761E0,2.394201607E-2
2.889988285E2,1.090798283E1,-6.643909931E0,4.668693244E-1
2.892489506E2,1.121204662E1,-7.419631004E0,-9.265560508E-1
2.894989811E2,6.974309444E0,-6.047753334E0,-4.333505034E-1
2.897492557E2,6.088454723E0,-5.729324818E0,5.698199868E-1
2.899993778E2,8.398859978E0,-3.794809580E0,-1.173158884E0
2.902496830E2,1.292868900E1,-6.402095318E0,7.158663273E-1
2.904998051E2,1.015141487E1,-6.165069580E0,2.257732153E0
2.907498051E2,7.649474621E0,-8.406042099E0,6.248866320E-1
2.909999576E2,8.949525833E0,-9.220070839E0,-7.086837292E-1
2.912502018E2,8.753201485E0,-4.472368717E0,-2.252943754E0
2.915013614E2,1.166933918E1,-4.786009312E0,-2.217030764E0
2.917514830E2,7.510610580E0,-5.631162167E0,-6.703764945E-2
2.920034667E2,5.219359875E0,-8.667010307E0,6.991068721E-1
2.922537414E2,1.129584408E1,-3.900154591E0,3.303998411E-1
2.925039245E2,1.250730991E1,-5.815515995E0,2.559401512E0
2.927551757E2,1.349132633E1,-8.724471092E0,1.367089152E0
2.930056640E2,5.726930618E0,-6.042964935E0,-4.070142806E-1
2.932560302E2,7.338228226E0,-8.118738174E0,6.081272364E-1
2.935062743E2,9.358934402E0,-2.715024710E0,-1.522712231E0
2.937563048E2,1.548330212E1,-3.799597979E0,-1.963245392E0
2.940075866E2,9.658209801E0,-5.003881454E0,9.552865028E-1
2.942577392E2,7.383718014E0,-8.669404030E0,-1.101332754E-1
2.945080748E2,1.082897472E1,-6.976703644E0,1.532289088E-1
2.947584105E2,1.089840603E1,-5.822698593E0,-1.771709323E-1
2.950085021E2,1.189200020E1,-8.152256966E0,-1.845929503E0
2.952590514E2,6.227318764E0,-6.347028732E0,-1.484405041E0
2.955091735E2,7.733271599E0,-6.821080685E0,1.347935557E0
2.957595702E2,7.290344238E0,-3.605667830E0,-7.110779285E-1
2.960097533E2,1.431253815E1,-5.178658485E0,5.602431893E-1
2.962617064E2,9.718064308E0,-5.834669590E0,2.075772762E0
2.965125914E2,7.079654217E0,-8.899248123E0,1.412578970E-1
2.967626220E2,9.624691010E0,-8.257601738E0,8.379705995E-2
2.970128356E2,9.713275909E0,-5.820304394E0,-2.305616140E0
2.972629882E2,1.267729759E1,-5.207388878E0,-2.729389906E0
2.975131102E2,6.789956093E0,-5.875370979E0,-9.097966552E-1
2.977646056E2,4.479551315E0,-7.620744228E0,1.012747288E0
2.980146361E2,7.412448406E0,-4.340687752E0,2.705447972E-1
2.982649413E2,1.316332054E1,-6.232107162E0,1.944091797E0
2.985156127E2,1.193030739E1,-7.046135426E0,1.903390408E0
2.987659179E2,6.744466305E0,-7.879317760E0,6.464344263E-2
2.990164061E2,7.611167431E0,-8.540117264E0,-8.643068075E-1
2.992666808E2,8.602366447E0,-3.385401249E0,-4.189853191E0
2.995167418E2,1.138921738E1,-3.232172251E0,-2.873042040E-2
2.997684203E2,8.659827232E0,-5.353435040E0,1.048660398E0
