"Time (s)","Gyroscope x (rad/s)","Gyroscope y (rad/s)","Gyroscope z (rad/s)"
1.385498100E-2,1.133441329E0,-9.848369956E-1,2.146507949E-1
2.639160160E-1,7.691209316E-1,5.688512325E-1,-1.397626996E0
5.142517090E-1,-1.341167927E0,7.925567627E-1,7.195861340E-1
7.644042970E-1,-2.876213938E-2,5.933523178E-1,-2.982740477E-2
1.014678955E0,1.470064968E-1,4.431500137E-1,9.784454107E-1
1.264892578E0,-9.912285805E-1,1.653823018E0,-1.480184913E0
1.514913559E0,2.727077007E-1,-1.174454093E0,2.370213419E-1
1.765127182E0,-6.615292430E-1,1.086037159E0,8.554073572E-1
2.015279770E0,-4.255731404E-1,-4.569984376E-1,1.051948667E0
2.265676498E0,7.866978049E-1,-1.895638108E0,-1.480717540E0
2.515737533E0,1.244761467E0,-1.323591113E0,-1.182443500E0
2.766012192E0,-7.616640627E-2,-8.202536404E-2,1.375256419E0
3.016164779E0,-9.182579517E-1,3.025351167E-1,7.563377619E-1
3.266439438E0,1.523328125E-1,8.926916122E-1,3.355582952E-1
3.516714096E0,-7.829693705E-2,1.617604017E0,-1.637311459E0
3.766988754E0,4.884237647E-1,-8.735168576E-1,1.043959185E-1
4.017171860E0,-1.363538504E-1,4.490089715E-1,9.843043685E-1
4.267416000E0,-4.293015897E-1,-1.086569726E-1,1.147289872E0
4.517660141E0,6.657902598E-1,-1.457281828E0,-1.166464567E0
4.767873764E0,9.906959534E-1,-1.190965652E0,-1.152083516E0
5.018087387E0,-7.494135499E-1,7.824367285E-1,8.090683818E-1
5.268392563E0,-7.440872192E-1,1.235706806E-1,8.048073053E-1
5.518606186E0,4.191815555E-1,1.842907518E-1,-1.331580617E-2
5.768789291E0,3.302319944E-1,9.795106649E-1,-1.656486273E0
6.018972397E0,-3.984089196E-1,3.621899337E-2,6.583334208E-1
6.268972397E0,-2.929477394E-1,1.114799261E0,9.667274952E-1
6.519124985E0,-5.091964006E-1,-6.562029123E-1,8.570052385E-1
6.769308090E0,7.392935157E-1,-9.906959534E-1,-1.545698762E0
7.019308090E0,1.038632870E0,-1.198955178E0,-1.067394972E0
7.269399643E0,-6.253102422E-1,2.679139972E-1,1.164334059E0
7.519521713E0,-2.130528986E-1,-2.135855258E-1,1.011468649E0
7.769796371E0,1.129180342E-1,4.181163013E-1,2.977414131E-1
8.020071029E0,7.329019308E-1,-1.651159972E-1,-1.225586772E0
8.270193100E0,-6.247776151E-1,2.242381722E-1,1.171790883E-1
8.520254135E0,-5.187838078E-1,9.922938347E-1,1.149420381E0
8.770559311E0,-9.214537591E-2,-5.028048158E-1,1.052481294E0
9.022679002E0,3.190467060E-1,-8.623315692E-1,-1.360342741E0
9.272801072E0,6.759102941E-1,-1.072721362E0,-1.227717280E0
9.522831590E0,2.663161140E-3,2.950782478E-1,1.047687650E0
9.773014695E0,-3.675162494E-1,4.793690052E-3,6.546050310E-1
1.002319780E1,-2.503371425E-2,9.145295620E-1,6.924218684E-2
1.027347246E1,-1.816275865E-1,1.211738348E0,-1.096157074E0
1.052383867E1,-2.881540358E-1,-2.098570913E-1,2.524676621E-1
1.077386919E1,5.912217870E-2,5.038700700E-1,6.780408025E-1
1.102402178E1,-4.793690145E-2,-9.065400362E-1,7.126619220E-1
1.127411333E1,2.157160491E-1,-1.267132044E0,-8.436894417E-1
1.152429643E1,9.203884602E-1,-1.151018262E0,-6.546050310E-1
1.177435747E1,-4.522047639E-1,1.252750993E0,4.367584288E-1
1.202460161E1,-8.591358066E-1,2.806971967E-1,4.830974340E-1
1.227484575E1,4.303668439E-1,4.884237647E-1,6.562029123E-1
1.252536455E1,-4.048005044E-1,1.616006136E0,-2.258360624E0
1.277545610E1,-1.043959185E-1,-9.747169614E-1,6.285060048E-1
1.302570024E1,-4.101268202E-2,8.436894417E-1,5.001416802E-1
1.327594438E1,-3.978762627E-1,-6.785734296E-1,1.297492146E0
1.352631059E1,7.451524734E-1,-1.574993491E0,-1.278317332E0
1.377670732E1,3.169161677E-1,-6.087986231E-1,-1.575526118E0
1.402689043E1,-1.118527725E-2,6.913566589E-1,7.643272281E-1
1.427698198E1,-9.310411215E-1,9.629990458E-1,7.776430249E-1
1.452710405E1,-3.888215125E-2,1.004544377E0,9.970875382E-1
1.477731767E1,2.769687586E-2,5.842975378E-1,-1.912682295E0
1.502768388E1,-5.273059011E-2,-1.080178142E0,-2.029328793E-1
1.527792803E1,5.965480953E-2,2.609897852E-1,1.024251819E0
1.552814165E1,-8.894958496E-1,0.000000000E0,8.245146871E-1
1.577826372E1,1.278317332E0,-1.473793387E0,-5.816344023E-1
1.602826372E1,1.416801661E-1,-2.428802997E-1,-1.403485894E0
1.627835527E1,-7.973504663E-1,4.362258017E-1,1.097222418E-1
1.652847734E1,-3.749730885E-1,2.103897333E-1,1.117462397E0
1.677872148E1,-4.048005044E-1,6.466155052E-1,1.017327547E0
1.702884355E1,-4.687163606E-2,4.111920893E-1,-9.864348769E-1
1.727905718E1,-5.326322466E-2,-3.728425503E-1,-9.864348769E-1
1.752920976E1,-4.655205607E-1,4.378236830E-1,5.326322317E-1
1.777936235E1,-6.098638773E-1,-6.226470470E-1,7.344998717E-1
1.802975908E1,1.074851871E0,-1.810949564E0,-6.034722924E-1
1.827988115E1,5.539374948E-1,-5.651227832E-1,-1.397626996E0
1.853003374E1,-4.186489284E-1,9.677927494E-1,5.917543769E-1
1.878030840E1,-1.736381054E-1,6.455502510E-1,1.054079175E0
1.903064409E1,-6.269081235E-1,5.454154015E-1,5.842975378E-1
1.928082720E1,-1.810949594E-1,5.874933600E-1,-1.182443500E0
1.953101030E1,1.257012039E-1,-9.022790194E-1,-8.229168057E-1
1.978101030E1,-2.114549875E-1,-6.604639441E-2,5.161206126E-1
2.003134599E1,-9.960222989E-2,-9.518138170E-1,8.362326026E-1
2.028155962E1,2.535329461E-1,-2.119876295E-1,1.363538504E-1
2.053159014E1,3.621899188E-1,2.141181529E-1,-1.419997573E0
2.078345171E1,-5.097290277E-1,2.487392575E-1,2.524676621E-1
2.103378740E1,-3.526025414E-1,5.278385282E-1,9.427590370E-1
2.128406206E1,1.448759735E-1,-1.107875034E-1,7.574030161E-1
2.153427568E1,2.801645398E-1,3.323625028E-1,-1.096157074E0
2.178470293E1,1.448759735E-1,-8.783105612E-1,-6.194512844E-1
2.203485552E1,8.681905270E-2,1.725728363E-1,4.410194755E-1
2.228519121E1,-2.029328793E-1,-2.135855258E-1,1.005077004E0
2.253552690E1,1.438107044E-1,-1.608549356E-1,-5.699164793E-2
2.278751054E1,5.379585624E-1,-1.970739290E-2,-1.217064619E0
2.303778520E1,-6.354302764E-1,5.464806557E-1,1.368864775E-1
2.328784624E1,-3.456783295E-1,1.070590734E0,6.551376581E-1
2.353818193E1,1.699096859E-1,-3.243730366E-1,1.042361259E0
2.378827348E1,-4.500742257E-1,-2.929477394E-1,-1.408812284E0
2.403848711E1,1.043959141E0,-1.532915592E0,-7.249124646E-1
2.428882280E1,-5.028048158E-1,6.625944972E-1,5.480785370E-1
2.453903642E1,-4.367584288E-1,1.699096859E-1,4.990763962E-1
2.478921953E1,-4.271710515E-1,1.005609632E0,5.949501991E-1
2.503940264E1,2.466087192E-1,7.201187611E-1,-1.183508754E0
2.528970781E1,-3.494067490E-1,-1.310275346E-1,-2.620550692E-1
2.553998247E1,-2.322276533E-1,6.407565475E-1,4.729774296E-1
2.579040972E1,-2.295644879E-1,-5.358279943E-1,7.504788041E-1
2.604071489E1,6.657902598E-1,-1.453020692E0,-1.089765549E0
2.629089800E1,1.236239433E0,-1.018925428E0,-1.031708598E0
2.654092851E1,-8.692557812E-1,8.016114831E-1,7.850999236E-1
2.679098955E1,-8.218515515E-1,5.874933600E-1,4.399542212E-1
2.704129472E1,-1.209075153E-1,1.763012707E-1,5.858954787E-1
2.729156938E1,-1.326254308E-1,8.372978568E-1,-1.588309288E0
2.754358354E1,3.573962152E-1,-1.173921466E0,-2.167813182E-1
2.779361406E1,2.364887148E-1,-2.583266199E-1,7.856325507E-1
2.804376665E1,-7.451524734E-1,-1.752360016E-1,8.639294505E-1
2.829398027E1,9.938917160E-1,-4.010720551E-1,-3.355583176E-2
2.854422441E1,1.438107044E-1,9.875001311E-1,-1.215999365E0
2.879446855E1,-1.027980208E0,6.668555737E-1,1.432780623E-1
2.904645220E1,-2.269013226E-1,1.038632870E0,8.836368918E-1
2.929669634E1,-4.223773479E-1,2.343581803E-2,9.486179948E-1
2.954684892E1,-2.130528986E-1,-8.213189244E-1,-1.589374542E0
2.979700151E1,7.062703371E-1,-1.370995402E0,-9.912285805E-1
3.004733720E1,-2.545982003E-1,6.801713705E-1,6.285060048E-1
3.029925981E1,-9.321063757E-2,-1.603222936E-1,4.697816372E-1
3.054938188E1,8.202536404E-2,8.042746782E-1,8.117315173E-1
3.079944292E1,-2.615224123E-1,1.301753163E0,-1.638909340E0
3.104947344E1,-2.002697140E-1,-1.304416299E0,2.039981484E-1
3.130145708E1,-8.894958496E-1,9.171926975E-1,3.531351686E-1
3.155347124E1,-1.427454352E-1,-3.946804702E-1,7.781757116E-1
3.180353227E1,3.025351167E-1,-1.274588943E0,-1.649029374E0
3.205377641E1,7.403587699E-1,-1.121723413E0,-7.685883045E-1
3.230399004E1,-5.006743073E-1,1.928128600E-1,4.127899706E-1
3.255405107E1,-5.912217498E-1,-1.219727769E-1,9.491506219E-1
3.280426470E1,-1.331580579E-1,5.198490620E-1,3.238403797E-1
3.305429521E1,5.512743592E-1,5.150553584E-1,-1.262338400E0
3.330469194E1,8.522115648E-3,-5.912217498E-1,-1.549959779E-1
3.355493608E1,3.051982522E-1,-1.496696621E-1,1.097755075E0
3.380518022E1,-2.897519469E-1,-3.579288721E-1,8.921589851E-1
3.405527178E1,2.274339646E-1,-2.567287385E-1,-5.150553584E-1
3.430548540E1,6.620618701E-1,-1.427454352E-1,-1.233576298E0
3.455569902E1,-8.756473660E-1,1.017860174E0,3.653857112E-1
3.480597368E1,-2.146507949E-1,1.352353215E0,8.655273914E-1
3.505637041E1,-1.549959779E-1,-1.960086524E-1,1.127049804E0
3.530661455E1,9.267801046E-1,-1.187769890E0,-1.467934370E0
3.555670610E1,1.299622655E-1,-1.311873198E0,-8.325041533E-1
3.580691972E1,-3.643204570E-1,4.809668958E-1,1.048220277E0
3.605707231E1,-7.313040495E-1,2.876213938E-2,8.261125684E-1
3.630716386E1,9.880327582E-1,4.846953228E-2,5.613943934E-1
3.655725542E1,2.567287385E-1,9.337043166E-1,-1.597896695E0
3.680731645E1,-5.938849449E-1,1.464738697E-1,2.625876963E-1
3.705743852E1,-4.026699662E-1,1.029045463E0,8.048073053E-1
3.730795732E1,-6.269081235E-1,-1.214401498E-1,1.209075212E0
3.755826250E1,3.824299276E-1,-1.107342362E0,-1.518001795E0
3.780847612E1,5.709817410E-1,-1.053546548E0,-1.423725963E0
3.805878130E1,-2.029328793E-1,2.476739883E-1,1.224521518E0
3.830902544E1,-3.813646734E-1,2.860234976E-1,7.099987864E-1
3.855930010E1,-7.669904083E-2,6.412891746E-1,3.909520507E-1
3.880957475E1,4.431500137E-1,5.613943934E-1,-1.356614232E0
3.905994096E1,-3.872236311E-1,7.882957160E-2,3.568635881E-2
3.931018510E1,-5.118595958E-1,1.030643344E0,9.438242912E-1
3.956030718E1,-1.949433982E-1,-4.985437691E-1,1.074851871E0
3.981058183E1,2.625876963E-1,-1.248489976E0,-1.041828632E0
4.006079546E1,5.118595958E-1,-1.273523688E0,-1.279382586E0
4.031116167E1,-4.117247164E-1,4.303668439E-1,8.367652297E-1
4.056125322E1,-8.085356951E-1,4.122573435E-1,7.824367285E-1
4.081152788E1,-1.102548689E-1,7.286409140E-1,6.546050310E-1
4.106152788E1,5.219795927E-2,1.011468649E0,-1.724130511E0
4.131180254E1,3.302319720E-2,-3.973436356E-1,-6.764429063E-2
4.156186357E1,-7.297061384E-2,2.561961114E-1,7.078682184E-1
4.181194249E1,-2.141181529E-1,-3.211772442E-1,7.211840153E-1
4.206200353E1,9.129316211E-1,-1.343298435E0,-3.573962152E-1
4.231215611E1,6.732471585E-1,-6.391586661E-1,-1.084439158E0
4.256404820E1,3.456783295E-1,7.344998717E-1,5.752428174E-1
4.281407872E1,-7.648598552E-1,1.033839107E0,7.115966678E-1
4.306441441E1,-8.468852192E-2,6.780408025E-1,6.386260390E-1
4.331636754E1,1.283643693E-1,6.359629035E-1,-1.144093990E0
4.356664220E1,7.669904083E-2,-1.237304688E0,-4.293015897E-1
4.381664220E1,2.636529505E-1,3.195793182E-2,4.202468395E-1
4.406676427E1,-7.073355913E-1,3.195793182E-2,7.488809228E-1
4.431682530E1,7.957525253E-1,-7.254450917E-1,-4.010720551E-1
4.456703893E1,4.452805519E-1,-3.834952042E-2,-1.126517177E0
4.481722203E1,-7.020092607E-1,1.139300346E0,3.739078343E-1
4.506740514E1,-2.993393242E-1,5.060006380E-1,8.809736967E-1
4.531743566E1,1.581917703E-1,-1.438106969E-2,4.735100567E-1
4.556755772E1,3.339604139E-1,2.982740402E-1,-1.581385136E0
4.581774083E1,1.853560209E-1,-1.314536333E0,-2.508697808E-1
4.606813756E1,-1.661812514E-1,-6.604639441E-2,7.813714743E-1
4.631822911E1,-4.181163013E-1,-5.060006380E-1,9.187905788E-1
4.656865636E1,1.085504532E0,-8.394283652E-1,-1.784317940E-1
4.681877843E1,6.093312502E-1,8.575379103E-2,-1.279382586E0
4.706890050E1,-6.487460732E-1,9.614011645E-1,1.507349163E-1
4.731899205E1,-4.830974340E-1,8.277105093E-1,1.102548718E0
4.756914464E1,-1.406149119E-1,8.415589482E-2,1.082308650E0
4.781954137E1,-1.512675583E-1,-2.423476577E-1,-1.259675264E0
4.806990758E1,1.810949668E-2,-1.211738348E0,-9.954896569E-1
4.832012120E1,-1.571265012E-1,-1.171790902E-2,9.113337398E-1
4.857045690E1,-2.402171344E-1,-1.384843737E-1,6.530070901E-1
4.882064000E1,6.066681147E-1,6.609966159E-1,2.418150306E-1
4.907097569E1,6.599313021E-1,2.530003190E-1,-1.175519347E0
4.932112828E1,-8.910937309E-1,3.339604139E-1,5.326322280E-4
4.957134191E1,2.061286718E-1,8.383631110E-1,7.392935157E-1
4.982146398E1,4.261057824E-3,-7.472830415E-1,8.096010089E-1
5.007179967E1,-1.049285457E-1,-1.666606188E0,-1.286306858E0
5.032213536E1,9.145295620E-1,-1.722000003E0,-5.736449361E-1
5.057228795E1,-3.701793849E-1,1.396561742E0,4.932174385E-1
5.082234899E1,-4.554005563E-1,-1.150485575E-1,5.890912414E-1
5.107250157E1,2.130528912E-2,6.061354876E-1,5.145227313E-1
5.132448522E1,-3.824299276E-1,1.788046360E0,-1.753425241E0
5.157451573E1,1.725728363E-1,-7.169229984E-1,1.267664731E-1
5.182463780E1,-2.556634694E-2,2.663161233E-2,6.817692518E-1
5.207472936E1,-6.237123609E-1,-6.391586736E-3,8.426241875E-1
5.232515660E1,7.669904232E-1,-1.141963482E0,-6.130596995E-1
5.257704869E1,5.464806557E-1,-4.016047120E-1,-1.328917384E0
5.282729283E1,3.355583176E-2,8.495483994E-1,7.760451436E-1
5.307747594E1,-2.183792144E-1,5.837649107E-1,6.301039457E-1
5.332781163E1,-8.255799860E-2,1.858886480E-1,8.458199501E-1
5.357781163E1,-5.779059529E-1,4.607268870E-1,-1.500424981E0
5.382793370E1,3.206445873E-1,-1.563275576E0,-3.723099232E-1
5.407805577E1,-1.656486243E-1,3.259709179E-1,4.356931746E-1
5.432826940E1,-2.178465873E-1,-2.716424465E-1,6.838997602E-1
5.457857457E1,7.744472623E-1,1.960086524E-1,1.635181010E-1
5.482878819E1,3.478088379E-1,9.427590370E-1,-1.357679605E0
5.507906285E1,-4.218447208E-1,-3.472762108E-1,3.653857112E-1
5.532924596E1,-4.133225977E-1,8.468852639E-1,4.207794666E-1
5.557958165E1,-4.719121456E-1,-2.556634545E-1,8.937568665E-1
5.582961217E1,5.715143681E-1,-1.768871665E0,-9.155948162E-1
5.607988683E1,8.181231022E-1,-1.066862345E0,-8.309062719E-1
5.633019200E1,-8.772453070E-1,1.867408633E0,6.306365728E-1
5.658028356E1,-5.661880374E-1,9.209211469E-1,8.474178910E-1
5.683058873E1,2.822950780E-1,1.491370201E-1,4.575310946E-1
5.708058873E1,5.539374948E-1,9.534116834E-2,-1.842907548E0
5.733095494E1,-4.958806038E-1,-6.034722924E-1,-4.058657587E-1
5.758217565E1,-9.906959534E-2,6.125270575E-2,1.755023241E0
5.783229772E1,-7.254450917E-1,2.055960447E-1,1.125451922E0
5.808275548E1,6.476807594E-1,3.036003746E-2,-9.384979606E-1
5.833364049E1,4.953479767E-1,1.422128081E-1,-1.807753801E0
5.858388463E1,-3.584614992E-1,6.029396653E-1,8.649947643E-1
5.883412877E1,-4.692489803E-1,9.624664187E-1,1.408279657E0
5.908425084E1,-1.688444167E-1,1.810949594E-1,9.480853677E-1
5.933458653E1,2.673813701E-1,-1.135571957E0,-1.309210062E0
5.958486119E1,3.195793368E-3,-1.063133955E0,-1.032773852E0
5.983516637E1,-2.183792181E-2,1.826928556E-1,1.302285790E0
6.008635655E1,-9.480853379E-2,-3.627225459E-1,9.640643597E-1
6.033653966E1,2.013349831E-1,8.362326026E-1,1.065264456E-2
6.058666173E1,-2.434129268E-1,7.265103459E-1,-1.946238160E0
6.083690587E1,-6.290386319E-1,3.568635881E-2,-3.062635362E-1
6.108721105E1,2.455434501E-1,4.671184719E-1,1.585646152E0
6.133763829E1,-2.790992856E-1,-2.103897333E-1,9.033442736E-1
6.158956090E1,5.534048676E-1,-2.024002552E0,-1.240500450E0
6.183980504E1,5.203816891E-1,-7.462177277E-1,-1.279382586E0
6.208998815E1,-2.940129936E-1,1.189367771E0,6.237123609E-1
6.234001866E1,-6.040049195E-1,4.793690145E-2,1.145159245E0
6.259026280E1,6.301039457E-1,9.060074091E-1,-2.503371425E-2
6.284053746E1,6.087986231E-1,5.081311464E-1,-1.696433663E0
6.309081212E1,-4.191815555E-1,1.651159860E-2,-1.075917110E-1
6.334096471E1,-3.036003746E-2,1.587243974E-1,1.084439158E0
6.359099523E1,-4.905542731E-1,-2.689792812E-1,8.090683818E-1
6.384108678E1,2.008023560E-1,-1.450357556E0,-1.145159245E0
6.409142247E1,7.174556255E-1,-1.116397142E0,-1.197357297E0
6.434160558E1,-1.315601617E-1,1.361407995E0,8.016114831E-1
6.459178868E1,-5.624596477E-1,1.773665249E-1,7.499461770E-1
6.484188024E1,2.743056118E-1,6.354302764E-1,5.715143681E-1
6.509215489E1,3.238403797E-1,2.439455539E-1,-1.711879969E0
6.534227696E1,-1.022653878E-1,-5.640575290E-1,-6.354302764E-1
6.559236852E1,2.418150306E-1,-2.114549875E-1,1.417866945E0
6.584261266E1,-1.115864515E0,-1.299622655E-1,9.869675040E-1
6.609276524E1,8.399610519E-1,-1.260740519E0,-7.211840153E-1
6.634288732E1,7.717841268E-1,-5.933523178E-1,-1.433313370E0
6.659316197E1,-4.825648069E-1,1.172323585E0,5.635249019E-1
6.684352818E1,-1.992044598E-1,5.427522659E-1,1.197889924E0
6.709371129E1,-2.125202566E-1,5.906891227E-1,8.394283652E-1
6.734392491E1,5.257080197E-1,-3.557983339E-1,-1.491370201E0
6.759416905E1,-2.817624509E-1,-6.162554622E-1,-5.470132828E-1
6.784435216E1,4.255731404E-1,-4.378236830E-1,1.105744481E0
6.809465733E1,-3.579288721E-1,-6.838997602E-1,7.696535587E-1
6.834480992E1,5.459480286E-1,-4.282363057E-1,-3.818973005E-1
6.859514562E1,9.076052904E-1,3.030677438E-1,-1.212270975E0
6.884538976E1,-1.222391009E0,6.434197426E-1,2.103897333E-1
6.909560338E1,-2.897519469E-1,7.046724558E-1,8.772453070E-1
6.934575597E1,-3.877562582E-1,-7.882957160E-2,1.083373904E0
6.959593907E1,9.747169912E-2,-7.701861858E-1,-1.548361897E0
6.984630528E1,6.082659960E-1,-1.518534541E0,-8.383631110E-1
7.009636632E1,-6.849650741E-1,8.836368918E-1,9.390306473E-1
7.034642735E1,-1.454086006E-1,-2.327602804E-1,8.580704927E-1
7.059685460E1,3.499393761E-1,5.560680628E-1,4.964132309E-1
7.084706822E1,1.422128081E-1,9.667274952E-1,-1.848233819E0
7.109749547E1,-1.699096859E-1,1.821602285E-1,-1.480717659E-1
7.134767858E1,5.033374429E-1,2.854908705E-1,1.597896695E0
7.159789220E1,-2.636529505E-1,-5.917543769E-1,8.713863492E-1
7.184789220E1,-6.077333689E-1,-8.037420511E-1,-1.835450649E0
7.209813634E1,9.944243431E-1,-1.373658538E0,-1.212803602E0
7.234822789E1,-1.864212751E-1,1.023186564E0,9.992180467E-1
7.259826977E1,-4.841626883E-1,5.054680109E-1,7.542072535E-1
7.284845287E1,-2.551308274E-1,1.037567616E0,6.625944972E-1
7.310040600E1,4.756405652E-1,2.322276533E-1,-1.387506962E0
7.335061962E1,-1.097222418E-1,-1.187769845E-1,-5.315669775E-1
7.360083324E1,2.892192900E-1,2.668487430E-1,6.242449880E-1
7.385101635E1,-5.060006380E-1,-1.880191714E-1,9.875001311E-1
7.410147412E1,3.515372798E-2,-6.700513363E-1,-9.427590370E-1
7.435180981E1,8.644620776E-1,-1.088700294E0,-1.051416039E0
7.460205395E1,-6.002765298E-1,8.080030680E-1,3.435477912E-1
7.485214550E1,-1.070590764E-1,7.211840153E-1,5.560680628E-1
7.510242016E1,1.241033077E-1,2.476739883E-1,1.107874990E0
7.535245068E1,9.161274135E-2,6.860303283E-1,-1.474858642E0
7.560275585E1,1.454086006E-1,-1.404551148E0,-2.221076339E-1
7.585290844E1,4.016047120E-1,-1.246359423E-1,8.937568665E-1
7.610315258E1,-3.946804702E-1,-3.499393761E-1,8.660600185E-1
7.635336620E1,8.873652816E-1,-2.647182047E-1,-3.643204570E-1
7.660367138E1,3.483414650E-1,7.542072535E-1,-1.639974594E0
7.685388500E1,-4.575310946E-1,2.524676621E-1,7.803062201E-1
7.710406811E1,-6.727145314E-1,1.143561363E0,4.697816372E-1
7.735443432E1,-1.027980223E-1,-5.070658922E-1,1.035437107E0
7.760489208E1,-8.042746782E-2,-8.767126203E-1,-1.374723792E0
7.785507519E1,3.009372056E-1,-9.970875382E-1,-1.130245566E0
7.810519726E1,-2.892192900E-1,3.637878001E-1,9.949570298E-1
7.835538036E1,-7.057377100E-1,5.331648588E-1,7.568703890E-1
7.860583813E1,1.123853996E-1,9.944243431E-1,4.788363874E-1
7.885769970E1,5.310343504E-1,8.325041533E-1,-1.660214663E0
7.910800488E1,6.178534031E-2,-6.625944972E-1,4.474110603E-1
7.935809643E1,-6.444849819E-2,2.364887148E-1,6.711165905E-1
7.960824902E1,-3.398193717E-1,-2.908172011E-1,8.277105093E-1
7.985986645E1,7.297061682E-1,-1.320395350E0,-7.515440583E-1
8.011020214E1,6.269081235E-1,-1.315601617E-1,-1.115864515E0
8.036047680E1,-5.065332651E-1,1.250087857E0,7.424893379E-1
8.061185009E1,-1.123853996E-1,9.933590889E-1,8.069378138E-1
8.086224682E1,-2.854908705E-1,5.336974859E-1,8.506136537E-1
8.111236889E1,9.587380290E-2,-3.025351167E-1,-1.080710769E0
8.136252148E1,-2.253034264E-1,-1.246359468E0,-7.952198982E-1
8.161377270E1,1.560612470E-1,-3.845604658E-1,8.783105612E-1
8.186532862E1,-1.592570394E-1,-5.139901042E-1,7.803062201E-1
8.211554225E1,7.147924304E-1,-1.565938741E-1,-2.663161233E-2
8.236712916E1,4.538026452E-1,5.581985712E-1,-1.489772320E0
8.261734278E1,-5.954828262E-1,4.532700181E-1,3.036003709E-1
8.286764796E1,-7.030745596E-2,9.757822156E-1,9.486179948E-1
8.311804469E1,-9.512811303E-1,-1.544633508E-2,1.166997194E0
8.336838038E1,4.985437691E-1,-1.690042019E0,-1.078047633E0
8.361981471E1,-1.864212751E-2,-1.073786616E0,-1.430650115E0
8.386987574E1,2.503371425E-2,3.930825889E-1,9.283779860E-1
8.412024196E1,9.123989940E-1,4.724447727E-1,8.996158242E-1
8.437060817E1,4.665858448E-1,1.970739290E-2,7.291735411E-1
8.462079127E1,4.756405652E-1,2.418150306E-1,-1.498294473E0
8.487143214E1,-5.150553584E-1,-7.270429730E-1,-1.193096191E-1
8.512149318E1,-1.171790902E-2,-3.046656251E-1,7.062703371E-1
8.537207301E1,-5.651227832E-1,-4.415521026E-1,8.894958496E-1
8.562326320E1,7.360977530E-1,-9.134642482E-1,-5.347627401E-1
8.587356837E1,6.221144199E-1,9.321063757E-2,-1.509479761E0
8.612518580E1,-6.487460732E-1,1.137169838E0,3.701793849E-1
8.637527736E1,-1.331580617E-2,1.070058107E0,1.126517177E0
8.662579615E1,-4.213120937E-1,3.547330499E-1,1.152083516E0
8.687600978E1,1.704423130E-2,-8.617989421E-1,-1.351287961E0
8.712716944E1,7.989483327E-2,-1.208009839E0,-1.007740140E0
8.737759669E1,-2.764361203E-1,5.352953672E-1,6.641923785E-1
8.762784083E1,7.882956862E-1,-3.563309610E-1,1.092428684E0
8.787829860E1,-6.471481323E-1,2.188585758E0,2.055960447E-1
8.812854274E1,5.502091050E-1,7.355651259E-1,-1.305481553E0
8.837970240E1,-5.320996046E-1,-5.821670294E-1,-1.597896665E-1
8.863000758E1,7.403588295E-2,-2.844256163E-1,4.362258017E-1
8.888110621E1,-5.917543769E-1,-3.994741738E-1,7.446198463E-1
8.913260157E1,6.109291911E-1,-1.328384757E0,-9.060074091E-1
8.938458522E1,4.117247164E-1,-6.024070382E-1,-1.269262552E0
8.963492091E1,-1.040763378E0,1.081776023E0,3.984089196E-1
8.988507350E1,-5.315669775E-1,7.872304320E-1,9.528790712E-1
9.013519557E1,-4.372910559E-1,2.055960447E-1,9.704559445E-1
9.038522609E1,3.962783813E-1,-7.243798375E-1,-1.528654456E0
9.063553126E1,4.474110603E-1,-1.505218625E0,-1.021588564E0
9.088586696E1,-2.663161159E-1,1.731054783E-1,9.859022498E-1
9.113589747E1,3.515372574E-1,-3.680488765E-1,1.073786616E0
9.138626368E1,5.193164349E-1,2.663161140E-3,-6.072007492E-2
9.163684352E1,7.803062201E-1,1.363538504E-1,-1.603755593E0
9.188705714E1,-1.176051974E0,8.266451955E-1,1.677791476E-1
9.213751490E1,-2.801645398E-1,9.640643597E-1,8.793758154E-1
9.238797267E1,-5.086637735E-1,-7.776430249E-2,9.230516553E-1
9.263901027E1,3.749730885E-1,-1.317199469E0,-8.671252728E-1
9.289032252E1,5.890912414E-1,-1.113201380E0,-1.193096161E0
9.314047511E1,-7.099987864E-1,1.423193336E0,3.728425503E-1
9.339081080E1,-1.784317940E-1,6.338323355E-1,1.174986720E0
9.364093287E1,5.912217870E-2,4.969458580E-1,1.321460605E0
9.389105494E1,-6.711166352E-2,4.420847595E-1,-1.692705274E0
9.414132960E1,-5.166532472E-2,-1.317732096E0,-4.655205607E-1
9.439148219E1,-4.585963488E-1,-1.070590764E-1,9.656622410E-1
9.464209254E1,-1.219727769E-1,-5.885586143E-1,9.198558331E-1
9.489215358E1,8.932242393E-1,2.609897964E-2,-2.508697808E-1
9.514364894E1,5.550028086E-1,2.013349831E-1,-1.495631337E0
9.539398463E1,-1.658084154E0,1.194694042E0,-3.099919558E-1
9.564502223E1,-4.575310946E-1,1.071655989E0,1.544633508E0
9.589663966E1,-6.801713705E-1,2.130528912E-3,1.152083516E0
9.614694484E1,-9.906959534E-2,-8.122641444E-1,-1.188302517E0
9.639734156E1,3.089267015E-2,5.752427876E-2,-1.531850338E0
9.664758571E1,-4.319647253E-1,-2.231729031E-1,7.121292949E-1
9.689792140E1,-4.878911078E-1,1.134506613E-1,9.688580036E-1
9.714831813E1,-5.054680109E-1,7.968178391E-1,2.050634027E-1
9.739859278E1,7.153250575E-1,5.885586143E-1,-1.138235092E0
9.764920314E1,-5.113269389E-2,-4.569984376E-1,3.142530099E-2
9.789932521E1,9.635316730E-1,-1.946770787E0,1.112136126E0
9.814956935E1,-6.572681665E-1,-3.552657068E-1,5.864281058E-1
9.839990504E1,6.205165386E-1,-1.869539171E-1,-3.227751255E-1
9.865030177E1,6.977482438E-1,2.727077007E-1,-1.745968461E0
9.890079005E1,-3.414172530E-1,1.115331888E0,5.395564437E-1
9.915085109E1,-4.207794741E-2,9.848369956E-1,1.344363689E0
9.940133937E1,-3.334277868E-1,3.296993375E-1,9.869675040E-1
9.965173610E1,7.920241356E-1,-1.422128081E0,-1.163801432E0
9.990219386E1,3.797667921E-1,-9.246495366E-1,-1.143561363E0
1.001541470E2,-3.818973005E-1,3.259709179E-1,6.801713705E-1
1.004042691E2,1.763012707E-1,-4.431500137E-1,1.209607840E0
1.006548794E2,2.274339646E-1,6.087986231E-1,1.965412945E-1
1.009050320E2,6.950850487E-1,1.251685768E-1,-1.527589202E0
1.011555508E2,-6.242449880E-1,1.384843793E-2,-3.259709179E-1
1.014058865E2,5.539374948E-1,-1.267664731E-1,1.125451922E0
1.016563137E2,-7.270429730E-1,-4.111920893E-1,8.138620257E-1
1.019069546E2,4.543353021E-1,-8.889631629E-1,-5.699164867E-1
1.021571682E2,6.854977012E-1,-4.372910559E-1,-1.175519347E0
1.024075650E2,-4.516721368E-1,1.072721362E0,2.748382390E-1
1.026578396E2,7.989483327E-2,7.217166424E-1,8.703210354E-1
1.029090603E2,2.146507949E-1,9.214537591E-2,1.346494317E0
1.031606472E2,-1.576591432E-1,-2.711097896E-1,-1.515871286E0
1.034109828E2,-3.813646734E-1,-1.171258211E0,-1.236239433E0
1.036612880E2,-1.789644361E-1,-4.394215941E-1,1.451955438E0
1.039115627E2,-7.259777188E-1,2.082591951E-1,9.976201653E-1
1.041617763E2,6.711166352E-2,4.516721368E-1,-5.001416802E-1
1.044124172E2,8.325041533E-1,-1.709749401E-1,-1.785383224E0
1.046625392E2,-8.096010089E-1,4.202468395E-1,-4.740426689E-2
1.049130886E2,-1.906823367E-1,6.881608367E-1,1.302818418E0
1.051633022E2,-2.945456207E-1,-6.210491657E-1,1.584580898E0
1.054146755E2,6.860303283E-1,-1.464738607E0,-1.336374283E0
1.056649806E2,1.672465205E-1,-7.014766335E-1,-1.570199847E0
1.059152553E2,-4.804342687E-1,1.188302517E0,1.025849700E0
1.061656826E2,-7.099987864E-1,6.237123609E-1,1.228249907E0
1.064159572E2,5.459480286E-1,3.462109566E-1,8.900284767E-1
1.066663539E2,6.572681665E-1,-2.524676621E-1,-1.581385136E0
1.069166591E2,-1.890844405E-1,-5.528722405E-1,-6.897587180E-1
1.071678798E2,6.444849819E-2,-2.620550692E-1,1.236239433E0
1.074194057E2,-5.853627920E-1,-2.412824035E-1,1.134506702E0
1.076695278E2,5.177185535E-1,-2.045307755E-1,-6.615292430E-1
1.079199245E2,6.636597514E-1,-4.894890189E-1,-1.606418848E0
1.081701381E2,-1.243163586E0,1.385909081E0,-7.254450917E-1
1.084205348E2,-3.941478580E-2,5.432848930E-1,2.062351942E0
1.086708095E2,-4.447479248E-1,3.787015080E-1,1.607484102E0
1.089209316E2,-2.684466541E-1,-1.543035507E0,-2.085787773E0
1.091724880E2,9.001484513E-2,-9.683253765E-1,-1.292698383E0
1.094224880E2,-3.403519988E-1,1.262871027E0,1.080178142E0
1.096729152E2,-2.114549875E-1,3.142530024E-1,1.500957608E0
1.099231899E2,8.367652297E-1,4.229099751E-1,2.386192381E-1
1.101745632E2,9.789780378E-1,-4.245078862E-1,-2.457032442E0
1.104250514E2,-5.065332651E-1,-8.175904751E-1,-6.444849968E-1
1.106750820E2,9.587380104E-3,2.130528912E-2,1.490304947E0
1.109256923E2,-1.040230751E0,-2.918824553E-1,1.363005877E0
1.111757228E2,7.126619220E-1,-1.045557022E0,-9.177253246E-1
1.114272487E2,5.832322836E-1,-1.065264493E-1,-2.180063725E0
1.116774013E2,-5.470132828E-1,7.914915085E-1,5.970807076E-1
1.119276760E2,-2.391518652E-1,9.757822156E-1,1.481250167E0
1.121781337E2,1.778991669E-1,-3.696467578E-1,1.544633508E0
1.124281337E2,-4.980111420E-1,-8.607336879E-1,-2.098038435E0
1.126784389E2,2.316950262E-1,-1.435976505E0,-1.033306479E0
1.129284694E2,-1.901497096E-1,6.615292430E-1,1.107874990E0
1.131787746E2,-3.099919558E-1,5.858954508E-3,1.061003447E0
1.134303005E2,1.960086524E-1,7.131945491E-1,2.822950780E-1
1.136803615E2,1.768338978E-1,7.078682184E-1,-2.242914200E0
1.139303920E2,-1.427454352E-1,-4.010720551E-1,1.235706806E-1
1.141805446E2,-1.571265012E-1,-2.247707993E-1,1.145691872E0
1.144307277E2,-5.528722405E-1,-4.522047639E-1,1.150485635E0
1.146824977E2,1.874865443E-1,-9.193232059E-1,-1.406681657E0
1.149326808E2,5.081311464E-1,-2.620550692E-1,-1.501490235E0
1.151830165E2,-1.193096191E-1,1.193628788E0,9.225190282E-1
1.154332607E2,-5.683186054E-1,9.555422068E-1,1.393365860E0
1.156835659E2,-6.018744037E-2,-1.949433982E-1,1.040763378E0
1.159336574E2,4.969458580E-1,-1.128115058E0,-1.654888391E0
1.161838100E2,-9.214537591E-2,-1.218662500E0,-1.060470819E0
1.164340236E2,-2.167813182E-1,4.452805519E-1,9.571400881E-1
1.166841152E2,-4.639226794E-1,1.651159860E-2,1.211738348E0
1.169343593E2,2.311623842E-1,3.818973005E-1,-3.163835406E-1
1.171844509E2,9.773801565E-1,9.853696078E-2,-1.683117867E0
1.174346645E2,-4.926848114E-1,1.970739290E-2,-4.575310946E-1
1.176848476E2,7.882957160E-2,-4.404868484E-1,1.805090666E0
1.179350307E2,-8.942894936E-1,3.089267015E-2,5.443501472E-1
1.181853664E2,1.105744481E0,-6.775081754E-1,-9.001484513E-1
1.184355800E2,6.215817928E-1,-4.420847595E-1,-1.567003965E0
1.186858242E2,-4.889563918E-1,1.479119658E0,3.691141307E-1
1.189359157E2,-6.332997084E-1,1.039698124E0,1.738511562E0
1.191864955E2,4.900216311E-2,6.764429063E-2,6.572681665E-1
1.194382961E2,7.515440583E-1,-1.109472990E0,-2.310558558E0
1.196885707E2,-5.699164793E-2,-9.608685374E-1,-1.254348874E0
1.199391201E2,2.439455539E-1,-1.992044598E-1,2.420280933E0
1.201892726E2,-4.394215941E-1,7.403588295E-2,1.666073561E0
1.204406154E2,-1.384843793E-2,7.590008974E-1,-1.707618952E0
1.206910732E2,5.640575290E-1,-2.034655064E-1,-2.365419626E0
1.209410732E2,-7.984157205E-1,1.031175971E0,-9.960222989E-2
1.211925991E2,-2.790992856E-1,7.771103978E-1,2.470348358E0
1.214426601E2,-6.865629554E-1,2.588592768E-1,2.131061554E0
1.216941555E2,4.095941782E-1,-1.732120037E0,-2.380866051E0
1.219443386E2,3.419498801E-1,-1.005609632E0,-1.669269443E0
1.221956508E2,-9.267801046E-2,8.564726114E-1,9.491506219E-1
1.224460475E2,-3.355583176E-2,1.688444167E-1,1.859951735E0
1.226960781E2,5.587311983E-1,1.261805773E0,2.125202566E-1
1.229475429E2,5.821670294E-1,-5.661880374E-1,-2.515089273E0
1.231978786E2,-3.494067490E-1,-7.621967196E-1,-6.322344542E-1
1.234481838E2,-3.675162494E-1,1.699096859E-1,1.849299073E0
1.236985195E2,-1.115331888E0,-1.613875628E-1,1.684183121E0
1.239496791E2,5.411543250E-1,-4.532700181E-1,-1.209075212E0
1.242000453E2,2.796319127E-1,-7.829693705E-2,-1.967010856E0
1.244500759E2,-6.013417840E-1,1.097222447E0,7.765777707E-1
1.247005336E2,-3.675162420E-2,8.591358066E-1,1.495098710E0
1.249506862E2,-7.542072535E-1,5.938849449E-1,1.769404292E0
1.252008998E2,-3.462109566E-1,-1.277784705E0,-2.057558298E0
1.254513576E2,5.326322466E-2,-1.283643723E0,-9.219864011E-1
1.257014186E2,-1.981391907E-1,1.141963482E0,5.198490620E-1
1.259519985E2,-2.854908705E-1,6.338323653E-2,1.230913043E0
1.262019985E2,5.347627401E-1,7.701861858E-1,3.115898669E-1
1.264522731E2,6.364955306E-1,8.628641814E-2,-2.187520504E0
1.267027004E2,-4.426173866E-1,-6.247776151E-1,-5.006742850E-2
1.269529445E2,-2.354234457E-1,2.263686955E-1,1.745435834E0
1.272035549E2,-6.130596995E-1,-1.331580579E-1,1.375256419E0
1.274539516E2,4.990763962E-1,-1.105744481E0,-1.393898487E0
1.277040737E2,5.693838596E-1,-6.327670813E-1,-1.867408633E0
1.279555690E2,-8.426241875E-1,1.056209683E0,6.956176758E-1
1.282075527E2,-3.270362020E-1,6.966829300E-1,1.934520245E0
1.284577663E2,-2.695119083E-1,5.592638254E-1,1.147289872E0
1.287093837E2,2.620550692E-1,-7.323693037E-1,-2.330265999E0
1.289595973E2,-1.581917703E-1,-1.097755075E0,-1.078047633E0
1.292110012E2,-4.159857631E-1,3.499393761E-1,1.530252337E0
1.294613063E2,-6.471481323E-1,-3.621899337E-2,1.666073561E0
1.297115810E2,3.840278387E-1,7.914915085E-1,-4.926848114E-1
1.299618251E2,5.608617067E-1,4.591289759E-1,-2.177933216E0
1.302119167E2,-3.494067490E-1,2.412824035E-1,4.048004746E-2
1.304620082E2,5.006742850E-2,3.115898669E-1,1.605886221E0
1.307123134E2,-9.443569183E-1,2.109223604E-1,1.463673353E0
1.309623439E2,6.391586363E-2,-1.284176350E0,-1.761414766E0
1.312124050E2,7.590008974E-1,-1.301753163E0,-1.523860812E0
1.314625270E2,-3.909520507E-1,1.309742689E0,6.146575809E-1
1.317127101E2,-2.348908186E-1,7.733820081E-1,1.739044189E0
1.319629543E2,4.628573954E-1,2.189118415E-1,4.346278906E-1
1.322132289E2,8.186557293E-1,-7.835019827E-1,-2.199238539E0
1.324635036E2,-8.788431436E-2,-8.042746782E-1,-1.175519347E0
1.327136562E2,-2.300971150E-1,-5.273059011E-2,2.302036524E0
1.329640834E2,-6.732471585E-1,-1.315601617E-1,1.210673094E0
1.332141139E2,9.470201135E-1,-4.697816372E-1,-1.014664412E0
1.334642971E2,5.113269091E-1,4.910869002E-1,-2.224272251E0
1.337144191E2,-5.560680628E-1,6.258428693E-1,6.908239722E-1
1.339645220E2,2.492718846E-1,6.412891746E-1,1.825330615E0
1.342147967E2,-8.479505181E-1,4.591289759E-1,9.837717414E-1
1.344648577E2,-7.882957160E-2,-1.788046360E0,-2.018676043E0
1.347149187E2,4.681837261E-1,-1.154746652E0,-1.683650494E0
1.349650713E2,-8.362326026E-2,9.922938347E-1,8.729842305E-1
1.352151629E2,-4.830974340E-1,4.436826408E-1,1.622930408E0
1.354654070E2,2.647182047E-1,1.074319243E0,7.121292949E-1
1.357156511E2,4.271710515E-1,7.989483327E-2,-2.368083000E0
1.359657427E2,-3.430151641E-1,-4.820321798E-1,-5.811017752E-1
1.362158037E2,-3.195793368E-3,4.490089715E-1,1.711879969E0
1.364658648E2,-1.053013921E0,-9.054748341E-3,1.534513474E0
1.367158648E2,7.366303802E-1,-9.044095278E-1,-1.125451922E0
1.369660784E2,8.570052385E-1,2.876213938E-2,-1.557949305E0
1.372161394E2,-2.492718846E-1,1.025849700E0,4.894890189E-1
1.374662615E2,-3.408846259E-1,1.100418210E0,1.762480021E0
1.377165056E2,-3.195793182E-2,2.279665917E-1,9.454222322E-1
1.379665667E2,-1.491370238E-2,-8.591358066E-1,-1.617071390E0
1.382165972E2,1.747033745E-1,-1.319862604E0,-1.382180691E0
1.384666887E2,-7.126619220E-1,3.563309610E-1,1.099352956E0
1.387169024E2,-5.411543250E-1,-6.498113275E-2,1.185639381E0
1.389688250E2,4.942827225E-1,3.350256681E-1,-2.652508616E-1
1.392207476E2,9.092032313E-1,-1.400822699E-1,-1.351820588E0
1.394708086E2,-9.635316730E-1,5.273059011E-1,-5.704491138E-1
1.397209612E2,5.858954787E-1,-6.791061163E-1,2.218413115E0
1.399712664E2,-5.864281058E-1,2.876214087E-1,7.179882526E-1
1.402217852E2,4.058657587E-1,-1.594700933E0,-2.111354113E0
1.404736162E2,5.736449361E-1,-7.659251690E-1,-1.786981106E0
1.407238299E2,-5.976133347E-1,8.202536106E-1,1.334243774E0
1.409739214E2,-1.518001854E-1,6.013417840E-1,1.791774869E0
1.412239519E2,7.350324839E-2,1.107342362E0,1.661812514E-1
1.414740435E2,5.278385282E-1,-2.732403278E-1,-2.246642828E0
1.417242266E2,-1.113201380E-1,-3.478088379E-1,-7.696535587E-1
1.419743487E2,7.936219871E-2,-1.001348570E-1,2.099636316E0
1.422244097E2,-9.081379771E-1,-3.254382908E-1,1.241565704E0
1.424744097E2,8.799084425E-1,-1.298024774E0,-1.405083776E0
1.427245012E2,8.916263580E-1,-3.898867965E-1,-1.948368669E0
1.429745928E2,-6.492787004E-1,9.342369437E-1,8.452873230E-1
1.432248064E2,-4.308994710E-1,4.335626364E-1,1.651159883E0
1.434750507E2,-1.896170676E-1,-2.205097377E-1,6.354302764E-1
1.437252339E2,7.685883045E-1,-4.633900523E-1,-2.058623552E0
1.439753559E2,1.475391239E-1,-1.001881242E0,-1.185106754E0
1.442255695E2,-4.181163013E-1,-1.310275346E-1,1.949433923E0
1.444758747E2,-8.080030680E-1,9.800432622E-2,7.872304320E-1
1.447261189E2,1.046622276E0,-5.667206645E-1,-7.227819562E-1
1.449780720E2,5.187838078E-1,6.924219131E-1,-2.055960417E0
1.452283161E2,-1.177117229E-1,4.388889670E-1,8.490157723E-1
1.454786213E2,3.142530099E-2,9.779127836E-1,1.648496747E0
1.457288044E2,-5.464806557E-1,2.396845073E-2,1.057807565E0
1.459790180E2,5.496764779E-1,-1.956358194E0,-1.519067168E0
1.462293537E2,1.470064968E-1,-7.968178391E-1,-1.672997832E0
1.464794148E2,-2.024002522E-1,1.385909081E0,8.751147389E-1
1.467297810E2,-3.920173049E-1,5.246427655E-1,1.516403913E0
1.469802693E2,5.933523178E-1,4.298342168E-1,2.972087860E-1
1.472305134E2,4.910869002E-1,3.781688958E-2,-2.280198574E0
1.474817646E2,-8.362326026E-2,-6.870955825E-1,-6.759102941E-1
1.477322529E2,1.214401498E-1,1.241033077E-1,1.961151838E0
1.479824970E2,-1.062601328E0,-5.379585549E-2,1.114266634E0
1.482337788E2,3.866910040E-1,-1.043426514E0,-1.108407617E0
1.484839619E2,1.432780623E-1,7.030745596E-2,-2.191248894E0
1.487351521E2,-1.752360016E-1,8.032094240E-1,7.435545921E-1
1.489855649E2,-4.154531360E-1,7.712514400E-1,1.947303414E0
1.492359311E2,4.830974340E-1,1.443433315E-1,4.916195571E-1
1.494862058E2,9.182579517E-1,-8.250473142E-1,-2.357430220E0
1.497364194E2,7.190535218E-2,-5.475459099E-1,-1.132376075E0
1.499866635E2,1.182443574E-1,-6.285060197E-2,2.438922882E0
1.502370602E2,-7.776430249E-1,-4.793690145E-2,1.157409787E0
1.504873044E2,5.912217498E-1,-3.142530099E-2,-1.383778572E0
1.507386166E2,9.928264618E-1,4.916195571E-1,-2.744653940E0
1.509887082E2,-8.628641814E-2,2.897519469E-1,9.427590370E-1
1.512390744E2,-2.695119083E-1,8.314388990E-1,2.273807049E0
1.514895932E2,-8.575378656E-1,5.720469952E-1,1.632517815E0
1.517407529E2,2.780340314E-1,-1.983522415E0,-2.142779350E0
1.519921872E2,3.195793331E-1,-1.081243396E0,-1.764077902E0
1.522425229E2,-1.912149638E-1,6.290386319E-1,1.272991061E0
1.524928586E2,-5.075985193E-1,-7.936219871E-2,1.686313629E0
1.527430112E2,3.866910040E-1,5.299690962E-1,2.391518652E-1
1.529942624E2,4.239752591E-1,3.845604658E-1,-2.622681141E0
1.532445676E2,-6.151902080E-1,2.002697140E-1,-2.988066673E-1
1.534946591E2,-1.864212751E-2,2.588592768E-1,2.324407101E0
1.537451474E2,-1.384311199E0,2.450108156E-2,1.401355386E0
1.539953000E2,4.181163013E-1,-1.601092458E0,-1.735315800E0
1.542455746E2,3.755057156E-1,-7.110640407E-1,-1.823200107E0
1.544961240E2,-3.211772442E-1,1.069525480E0,5.518069863E-1
1.547463986E2,-1.027980223E-1,3.222424984E-1,1.761947393E0
1.549966733E2,7.424893379E-1,4.298342168E-1,4.830974340E-1
1.552482297E2,7.904262543E-1,-1.539307088E-1,-2.521481037E0
1.554986264E2,-1.848233789E-1,-5.901564956E-1,-6.705839634E-1
1.557489926E2,-1.842907518E-1,3.137203753E-1,2.147573233E0
1.559994199E2,-1.289502621E0,-1.608549356E-1,1.281513095E0
1.562505185E2,3.909520507E-1,-7.909588814E-1,-1.437041759E0
1.565011899E2,8.218515515E-1,3.195793368E-3,-2.159823656E0
1.567513425E2,2.135855258E-1,1.185639381E0,1.064731836E0
1.570019833E2,-6.860303283E-1,9.635316730E-1,2.030926704E0
1.572522885E2,-3.478088379E-1,7.749798894E-1,1.549959779E0
1.575024716E2,3.781688958E-2,-1.013599157E0,-1.852494836E0
1.577526852E2,-2.876214087E-1,-7.669904232E-1,-1.467934370E0
1.580029599E2,-2.796319127E-1,5.805691332E-2,1.315601587E0
1.582531735E2,-7.563377619E-1,1.283643693E-1,1.327319503E0
1.585048215E2,6.109291911E-1,5.486112088E-2,-6.769755483E-1
1.587549130E2,7.094660997E-1,-4.687163606E-2,-2.637594700E0
1.590056454E2,-5.736449361E-1,3.488741219E-1,5.305017233E-1
1.592575681E2,1.203748807E-1,2.247707993E-1,2.314819574E0
1.595078122E2,-8.399610519E-1,6.870955974E-2,1.439704895E0
1.597581174E2,7.456851006E-1,-2.617354870E0,-2.035720348E0
1.600083310E2,2.183792144E-1,-5.640575290E-1,-1.810416937E0
1.602588803E2,-5.480785370E-1,9.880327582E-1,9.060074091E-1
1.605108029E2,-9.230516553E-1,1.874865443E-1,2.082592010E0
1.607611081E2,5.400890708E-1,2.732403278E-1,-3.941478580E-2
1.610114743E2,5.656554103E-1,-1.384843793E-2,-2.601908445E0
1.612618100E2,-4.830974340E-1,4.261057824E-3,-2.849582434E-1
1.615122067E2,3.067961633E-1,7.510114461E-2,2.591255903E0
1.617624203E2,-1.531317711E0,3.174487948E-1,1.268729925E0
1.620128781E2,4.117247164E-1,-1.620799899E0,-1.857821226E0
1.622630002E2,1.821602285E-1,9.640643001E-2,-2.128398418E0
1.625137021E2,-1.821602285E-1,9.097358584E-1,1.393365860E0
1.627637631E2,-4.932174385E-1,1.443433315E-1,1.557949305E0
1.630137631E2,5.299690962E-1,1.443433315E-1,8.186557293E-1
1.632643430E2,8.580704927E-1,-7.440872192E-1,-2.263154268E0
1.635144650E2,-4.122573435E-1,-8.202536106E-1,-8.958874345E-1
1.637648923E2,-3.536677957E-1,-4.729774296E-1,2.022404671E0
1.640152890E2,-1.013066530E0,-4.633900523E-2,1.211205721E0
1.642654416E2,6.812366247E-1,-4.633900523E-2,-7.680556774E-1
1.645157468E2,5.629922748E-1,7.366303802E-1,-2.692988634E0
1.647671201E2,-5.502091050E-1,2.663161159E-1,8.410263062E-1
1.650189816E2,-4.601942301E-1,1.187237263E0,2.001631975E0
1.652693784E2,-9.150621891E-1,1.299622655E-1,1.086569786E0
1.655196225E2,7.009440064E-1,-2.291383743E0,-2.048503637E0
1.657708432E2,3.632551730E-1,-6.636597514E-1,-1.677791476E0
1.660213010E2,-1.555286050E-1,6.727145314E-1,1.103613973E0
1.662715451E2,-3.334277868E-1,6.551376581E-1,1.511610270E0
1.665220334E2,1.864212751E-2,4.458131790E-1,5.150553584E-1
1.667722558E2,7.014766335E-1,-3.467435837E-1,-2.011219263E0
1.670225610E2,-2.221076339E-1,-1.276186824E0,-9.539443254E-1
1.672731408E2,-3.760383427E-1,6.817692518E-2,1.671399951E0
1.675232934E2,-8.005462289E-1,5.752427876E-2,1.520665050E0
1.677738122E2,4.873584807E-1,3.909520507E-1,-1.096157074E0
1.680240259E2,4.804342687E-1,6.759102941E-1,-1.921204448E0
1.682743005E2,-1.752360016E-1,6.950850487E-1,5.816344023E-1
1.685248193E2,-2.380866110E-1,7.856325507E-1,1.968076110E0
1.687760705E2,-3.057309091E-1,4.538026452E-1,7.920241356E-1
1.690275354E2,2.402171344E-1,-1.366201639E0,-1.863680124E0
1.692777185E2,3.515372798E-2,-9.566074610E-1,-1.752359986E0
1.695280847E2,-5.566006899E-1,5.912217870E-2,1.853560209E0
1.697783594E2,-7.962851524E-1,6.199839115E-1,1.017860174E0
1.700286035E2,5.693838596E-1,9.864348769E-1,-7.776430249E-1
1.702789697E2,7.941546440E-1,6.125270575E-2,-2.079928875E0
1.705289697E2,-6.056028605E-1,2.290318534E-2,2.743056118E-1
1.707793969E2,-5.054680109E-1,2.966761589E-1,2.140116215E0
1.710294275E2,-1.154214025E0,4.298342168E-1,7.728493810E-1
1.712806482E2,4.399542212E-1,-1.765143156E0,-1.448227048E0
1.715310144E2,5.581985712E-1,-5.587311983E-1,-2.027730942E0
1.717820825E2,6.364955306E-1,4.889563918E-1,1.623463035E0
1.720338830E2,-7.084008455E-1,9.912285805E-1,1.213336229E0
1.722840051E2,3.845604658E-1,7.669904232E-1,9.523464441E-1
1.725344018E2,6.849650741E-1,-6.727145314E-1,-2.231729031E0
1.727847986E2,-5.992112756E-1,-8.756473660E-1,-9.981527925E-1
1.730350732E2,3.227751255E-1,-1.049285457E-1,1.806155920E0
1.732853784E2,-6.061354876E-1,1.789644361E-1,1.489239693E0
1.735356225E2,3.818973005E-1,-2.183792144E-1,-9.512811303E-1
1.737857751E2,6.940197945E-1,1.448759735E-1,-2.018676043E0
1.740373926E2,-7.291735411E-1,1.008272767E0,4.175836742E-1
1.742875757E2,-3.057309091E-1,7.957525253E-1,1.823200107E0
1.745380029E2,-1.043959185E-1,1.890844405E-1,9.768475294E-1
1.747880945E2,8.772453070E-1,-8.303736448E-1,-1.556884050E0
1.750395593E2,-3.675162420E-2,-1.044491768E0,-1.631985188E0
1.752901086E2,-4.639226794E-1,-2.498045117E-1,1.612810373E0
1.755401391E2,-1.128115058E0,-4.527373984E-2,1.365669012E0
1.757907800E2,4.538026452E-1,-9.054747969E-2,-5.784385800E-1
1.760409936E2,4.761732221E-1,1.422128081E-1,-2.325472355E0
1.762916040E2,-6.183860302E-1,8.500810266E-1,4.554005563E-1
1.765419397E2,3.355583176E-2,5.992112756E-1,2.042644501E0
1.767921838E2,-2.796319127E-1,1.757686287E-1,1.251153111E0
1.770426721E2,2.700445354E-1,-1.472195506E0,-1.928128719E0
1.772928857E2,-6.817692518E-2,-8.506136537E-1,-1.520132422E0
1.775432214E2,1.624528319E-1,3.547330499E-1,1.245294094E0
1.777934656E2,-7.914915085E-1,1.976065636E-1,1.219727755E0
1.780435876E2,9.859022498E-1,3.675162494E-1,2.737729549E-1
1.782942285E2,6.668555737E-1,-4.261057824E-3,-2.564624071E0
1.785443811E2,-1.651159972E-1,-5.512743592E-1,-1.097222418E-1
1.787951440E2,-2.386192381E-1,8.341020942E-1,1.565938711E0
1.790471277E2,5.384911895E-1,-3.749730885E-1,1.756088495E0
1.792974023E2,-4.484763443E-1,-1.343831062E0,-1.544633508E0
1.795479822E2,4.905542731E-1,-7.302387953E-1,-1.865278006E0
1.797981653E2,-3.051982522E-1,1.083373904E0,9.342369437E-1
1.800486841E2,-5.060006380E-1,2.775014043E-1,1.447694421E0
1.802989892E2,5.411543250E-1,7.281082273E-1,5.805691481E-1
1.805503015E2,5.326322280E-4,3.430151641E-1,-2.271676540E0
1.808006677E2,-3.163835406E-1,-7.259777188E-1,-8.165252209E-1
1.810517663E2,-2.114549875E-1,1.613875628E-1,1.895105481E0
1.813031701E2,-9.390306473E-1,-2.119876295E-1,1.227184653E0
1.815531975E2,7.110640407E-1,-1.753425241E0,-9.203884602E-1
1.818036552E2,2.077265643E-2,1.123853996E-1,-2.375539780E0
1.820538384E2,1.368864775E-1,9.251821637E-1,1.309742689E0
1.823042351E2,-9.512811303E-1,5.922870636E-1,1.392300606E0
1.825544487E2,5.486112237E-1,3.344930410E-1,1.071655989E0
1.828047234E2,4.154531360E-1,1.901497096E-1,-2.188585758E0
1.830550896E2,-3.435477912E-1,-9.741843343E-1,-7.707188129E-1
1.833053948E2,-2.135855258E-1,-5.699164793E-2,1.744370580E0
1.835555473E2,-7.190535069E-1,-2.162486911E-1,1.458879709E0
1.838060967E2,6.066681147E-1,-8.815063238E-1,-7.973504663E-1
1.840564323E2,4.596616030E-1,-2.727077007E-1,-2.276470184E0
1.843068901E2,-1.150485575E-1,1.275654197E0,6.242449880E-1
1.845570427E2,3.531351686E-1,5.012069345E-1,2.309493303E0
1.848073784E2,1.118527651E-1,-1.422128081E-1,9.912285805E-1
1.850576530E2,5.113269389E-2,-9.267801046E-1,-2.204564810E0
1.853079277E2,3.302319720E-2,-1.391767979E0,-1.533980846E0
1.855586296E2,-4.330300093E-1,-4.367584363E-2,1.732120037E0
1.858086601E2,-2.988066673E-1,2.737729549E-1,1.382180691E0
1.860589958E2,6.828345060E-1,7.376956344E-1,-2.790992856E-1
1.863092705E2,2.908172011E-1,8.932242393E-1,-2.319613457E0
1.865604607E2,-2.988066673E-1,1.651159860E-2,4.282363057E-1
1.868121391E2,-6.135923266E-1,8.335694075E-1,1.767273784E0
1.870622307E2,-2.828277051E-1,-3.462109342E-2,1.138767719E0
1.873126579E2,8.948221803E-2,-1.894572854E0,-1.887115955E0
1.875629021E2,5.603290796E-1,-6.647250056E-1,-1.783252716E0
1.878140617E2,1.821602285E-1,8.831042051E-1,1.328384757E0
1.880646416E2,-8.080030680E-1,4.490089715E-1,1.261273146E0
1.883147636E2,4.649879336E-1,1.352885842E0,1.021588564E0
1.885664116E2,1.565938741E-1,1.928128600E-1,-2.449575663E0
1.888166252E2,-3.728425503E-1,-7.808388472E-1,-6.663229465E-1
1.890679680E2,-3.547330499E-1,-1.944107562E-1,2.002697229E0
1.893185173E2,-1.106277108E0,-1.193096191E-1,1.283111095E0
1.895687004E2,1.042361259E0,-8.133293986E-1,-7.520766854E-1
1.898191582E2,7.147924304E-1,1.747033745E-1,-2.458630323E0
1.900693108E2,-4.601942301E-1,9.326390028E-1,1.178182483E0
1.903197380E2,-9.321063757E-2,9.912285805E-1,2.124670029E0
1.905700737E2,-9.379653335E-1,4.314320982E-1,1.071123362E0
1.908211113E2,2.609897852E-1,-1.878061295E0,-2.098038435E0
1.910716606E2,2.013349831E-1,-9.369000793E-1,-1.729456902E0
1.913217522E2,-5.912217870E-2,5.640575290E-1,1.336906910E0
1.915723320E2,-5.299690962E-1,2.727077007E-1,1.666606188E0
1.918226067E2,7.456851006E-1,1.066329718E0,-4.676510990E-1
1.920728813E2,2.258360684E-1,4.916195571E-1,-2.481000900E0
1.923232780E2,-5.086637735E-1,4.261057824E-2,-1.161138266E-1
1.925735222E2,1.278317273E-1,1.624528319E-1,2.034122467E0
1.928242241E2,-9.917612076E-1,1.091896072E-1,1.274056315E0
1.930761467E2,1.613875628E-1,-1.078580260E0,-1.521730304E0
1.933264519E2,6.444849968E-1,-2.801645398E-1,-2.004295111E0
1.935765739E2,-3.866910040E-1,1.029045463E0,1.118527651E0
1.938271233E2,-1.347559541E-1,8.926916122E-1,1.694835782E0
1.940774590E2,-2.327602804E-1,1.118527725E-2,4.500742257E-1
1.943277031E2,5.502091050E-1,-1.379517436E0,-2.334527016E0
1.945780693E2,-3.195793182E-2,-1.184574127E0,-9.475527406E-1
1.948283135E2,-3.845604658E-1,2.274339646E-1,1.660214663E0
1.950785271E2,-8.543421030E-1,-3.515372798E-2,1.390170097E0
1.953298393E2,2.178465873E-1,6.897587180E-1,-8.053399324E-1
1.955799614E2,3.744404614E-1,1.315601617E-1,-2.160888910E0
1.958303581E2,-3.882888854E-1,1.523328125E-1,-4.846953228E-2
1.960806023E2,-2.061286718E-1,5.597964525E-1,1.883387566E0
1.963308464E2,-7.004113793E-1,-9.001484513E-2,1.069525480E0
1.965813347E2,7.243798375E-1,-1.887115955E0,-1.534513474E0
1.968317619E2,3.456783295E-1,-9.619337916E-1,-1.318797350E0
1.970821281E2,-2.673813701E-1,1.071123362E0,1.233576298E0
1.973322502E2,-4.719121456E-1,8.096010089E-1,1.333711147E0
1.975824568E2,-1.038632840E-1,3.877562582E-1,5.683186054E-1
1.978328535E2,4.596616030E-1,-7.344998717E-1,-1.805623293E0
1.980830367E2,-3.643204570E-1,-8.154599667E-1,-1.227184653E0
1.983334639E2,-3.515372574E-1,1.310275346E-1,1.690042019E0
1.985852950E2,-4.442152679E-1,-6.977482140E-2,1.314536333E0
1.988358138E2,5.480785370E-1,6.924218684E-2,-1.261273146E0
1.990859969E2,6.215817928E-1,2.077265680E-1,-1.867408633E0
1.993373701E2,-5.566006899E-1,8.229168057E-1,4.442152679E-1
1.995888045E2,1.059938148E-1,7.914915085E-1,2.014947653E0
1.998389571E2,-3.589941263E-1,1.059938148E-1,8.926916122E-1
2.000894148E2,7.014766335E-1,-1.806688547E0,-2.038916111E0
2.003394453E2,5.225121975E-1,-1.270327806E0,-1.299622655E0
2.005898726E2,-3.728425503E-1,5.534048676E-1,1.195226669E0
2.008400252E2,-6.162554622E-1,3.728425503E-2,1.214934111E0
2.010902083E2,3.105245829E-1,1.008272767E0,2.663161140E-3
2.013407881E2,5.432848930E-1,5.640575290E-1,-2.243446827E0
2.015909102E2,4.261057824E-3,2.290318608E-1,-3.520699143E-1
2.018411543E2,1.544633508E-2,2.332929224E-1,1.895638108E0
2.020917342E2,-5.251753926E-1,-3.483414650E-1,1.251685739E0
2.023428328E2,4.277036786E-1,-1.776328444E0,-2.018143415E0
2.025943892E2,5.688512325E-1,-1.071655989E0,-1.613875628E0
2.028445723E2,-6.317018270E-1,1.200020432E0,1.120658159E0
2.030950911E2,1.906823367E-1,2.764361203E-1,1.677258849E0
2.033453963E2,2.748382390E-1,1.079645514E0,4.644553065E-1
2.035955183E2,7.755125165E-1,2.450108156E-2,-2.257827997E0
2.038460982E2,-8.415589482E-2,-8.474178910E-1,-2.929477394E-1
2.040963728E2,-4.665858448E-1,6.689860821E-1,1.554220796E0
2.043467390E2,-5.550028086E-1,-3.057309091E-1,1.558481932E0
2.045968916E2,4.969458580E-1,-1.548361897E0,-1.586178780E0
2.048488448E2,6.130596995E-1,-6.684534550E-1,-1.821602225E0
2.050993941E2,-3.030677438E-1,8.186557293E-1,6.189186573E-1
2.053495772E2,-6.711166352E-2,3.930825889E-1,1.518534541E0
2.056001265E2,4.356931746E-1,3.856257200E-1,5.480785370E-1
2.058503706E2,8.234494328E-1,-4.830974340E-1,-2.249838591E0
2.061007063E2,1.262338310E-1,-8.863000274E-1,-6.285060048E-1
2.063510420E2,-5.070658922E-1,2.705771625E-1,1.867941260E0
2.066011031E2,-5.246427655E-1,-4.404868484E-1,1.367266893E0
2.068517744E2,4.873584807E-1,-6.684534550E-1,-9.086706042E-1
2.071019576E2,6.956176758E-1,-1.139832959E-1,-1.835450649E0
2.073523848E2,-4.585963488E-1,1.185639381E0,1.118527651E0
2.076028426E2,-2.231729031E-1,1.578721881E0,1.945172906E0
2.078529036E2,-5.816344023E-1,2.988066673E-1,7.110640407E-1
2.081035139E2,-2.024002373E-2,-1.666606188E0,-1.982989788E0
2.083536665E2,1.347559541E-1,-1.086037159E0,-1.218129873E0
2.086041853E2,-1.731054783E-1,4.490089715E-1,1.192030907E0
2.088544905E2,-7.259777188E-1,1.049285457E-1,1.351820588E0
2.091045821E2,3.952131271E-1,5.789712071E-1,9.960222989E-2
2.093551314E2,4.255731404E-1,2.215750068E-1,-2.402171373E0
2.096052204E2,-5.960154533E-1,6.583334208E-1,-6.902913451E-1
2.098557697E2,-7.137271762E-2,4.894890189E-1,1.933987617E0
2.101062275E2,-5.166532397E-1,-2.609897964E-2,1.638376713E0
2.103564716E2,2.460760921E-1,-1.426921725E0,-1.525991321E0
2.106071430E2,-1.411475390E-1,-7.467503548E-1,-1.779524326E0
2.108572956E2,-2.311623842E-1,1.024251819E0,6.625944972E-1
2.111079670E2,-3.552657068E-1,3.312972486E-1,2.112419367E0
2.113580280E2,6.769755483E-1,6.258428693E-1,2.881540358E-1
2.116080891E2,-1.651159972E-1,-2.269013226E-1,-2.824548721E0
2.118585163E2,-6.263754964E-1,-5.336974859E-1,-9.038769007E-1
2.121085773E2,2.998719513E-1,-8.245146871E-1,2.806439161E0
2.123590961E2,-1.331047893E0,2.093244642E-1,1.603222966E0
2.126093708E2,8.186557293E-1,-5.656554103E-1,-1.169127703E0
2.128608051E2,8.186557293E-1,8.016114831E-1,-2.804308653E0
2.131108051E2,-5.326322466E-2,3.813646734E-1,1.065797091E0
2.133609577E2,-2.743056118E-1,7.371630073E-1,2.232261658E0
2.136114460E2,-2.380866110E-1,1.970739216E-1,1.441302776E0
2.138615986E2,-6.647250056E-1,-2.459695578E0,-2.418150425E0
2.141119953E2,1.480717659E-1,-9.470201135E-1,-1.912149668E0
2.143623615E2,-1.017327532E-1,5.970807076E-1,2.265284777E0
2.146125751E2,1.118527651E-1,5.645901710E-2,1.768339038E0
2.148642536E2,1.156877160E0,7.914915085E-1,-1.757686287E-1
2.151143757E2,2.796319127E-1,1.310275346E-1,-3.100984812E0
2.153648640E2,-2.668487430E-1,-2.087918371E-1,-6.407565475E-1
2.156152302E2,3.137203753E-1,3.419498801E-1,2.761698008E0
2.158657795E2,-1.231445670E0,2.359560728E-1,1.617604017E0
2.161163593E2,3.302319720E-2,-2.124670029E0,-1.959553957E0
2.163664204E2,2.956108749E-1,-3.611246645E-1,-2.652508497E0
2.166169392E2,7.297061384E-2,9.683253765E-1,1.144093990E0
2.168674274E2,-2.657834888E-1,3.802994192E-1,2.596582174E0
2.171174580E2,3.834952116E-1,4.735100567E-1,3.856257200E-1
2.173679462E2,3.121224940E-1,-1.161138296E0,-3.003513098E0
2.176179768E2,7.563377917E-2,-9.725864530E-1,-1.007207513E0
2.178682819E2,-4.926848114E-1,2.434129268E-1,1.835450649E0
2.181185871E2,-1.001348570E-1,-2.897519469E-1,1.881789684E0
2.183696247E2,4.197141826E-1,-2.077265643E-2,-1.481782913E0
2.186213032E2,2.993393242E-1,-1.842907518E-1,-2.165682554E0
2.188715473E2,-3.669835925E-1,1.094559193E0,-2.087918371E-1
2.191218220E2,3.494067490E-1,2.631203234E-1,2.373941898E0
2.193720356E2,-3.834952042E-2,-1.981391907E-1,1.219727755E0
2.196222797E2,1.826928556E-1,-2.314286947E0,-1.915345550E0
2.198727680E2,-3.158509135E-1,-7.552725077E-1,-1.565406084E0
2.201229206E2,-5.299690962E-1,1.086037159E0,1.586178780E0
2.203735615E2,1.326254308E-1,2.972087860E-1,2.083657265E0
2.206238056E2,1.129180342E-1,1.148355126E0,-2.849582434E-1
2.208743549E2,7.174556255E-1,-5.672533512E-1,-2.424009323E0
2.211247822E2,-5.400890708E-1,-1.086569726E-1,-9.337043166E-1
2.213749043E2,-6.231797114E-2,-1.667138934E-1,2.375539780E0
2.216254230E2,-1.027447581E0,2.934803665E-1,1.554220796E0
2.218756062E2,7.174556255E-1,-1.432248116E0,-1.632517815E0
2.221270710E2,2.391518652E-1,-4.175836742E-1,-2.025067806E0
2.223771320E2,-1.070590764E-1,1.050883412E0,5.864281058E-1
2.226281391E2,4.793690052E-3,5.624596477E-1,2.049568892E0
2.228797871E2,1.619201899E-1,1.981391907E-1,1.263403654E0
2.231301228E2,7.403588295E-2,-9.928264618E-1,-2.210423708E0
2.233805500E2,-3.627225459E-1,-9.550095797E-1,-1.231978297E0
2.236308247E2,1.336906850E-1,-1.486043930E-1,1.405616403E0
2.238811604E2,-3.584614992E-1,-1.171790902E-2,1.589374542E0
2.241312214E2,2.391518652E-1,9.496832490E-1,-6.716492176E-1
2.243815266E2,5.028048158E-1,1.416801661E-1,-2.603506327E0
2.246322895E2,-4.788363874E-1,3.728425503E-1,-1.715075821E-1
2.248825642E2,1.981391907E-1,2.274339646E-1,2.272209167E0
2.251330219E2,-6.354302764E-1,1.810949668E-2,1.562210321E0
2.253832966E2,-3.147856593E-1,-1.285774231E0,-2.118278265E0
2.256351276E2,3.968110085E-1,-6.407565475E-1,-2.035720348E0
2.258857380E2,-1.986718178E-1,8.309062719E-1,1.122788787E0
2.261357685E2,-3.110572100E-1,4.239752591E-1,1.732120037E0
2.263862568E2,3.430151641E-1,1.119060278E0,6.620618701E-1
2.266363789E2,7.115966678E-1,-4.660531878E-1,-2.142246723E0
2.268867756E2,-6.434197426E-1,-3.744404614E-1,-1.419464946E0
2.271371723E2,-5.539375171E-2,-1.198422536E-1,2.067678213E0
2.273871723E2,-9.145295620E-1,5.006742850E-2,1.448759675E0
2.276378132E2,3.350256681E-1,3.089267015E-1,-1.208542466E0
2.278878742E2,9.422264099E-1,-3.845604658E-1,-2.420813560E0
2.281391942E2,-4.506068528E-1,7.882956862E-1,4.852279723E-1
2.283896214E2,2.450108156E-2,1.533980817E-1,2.147573233E0
2.286397130E2,-4.410194755E-1,-2.716424316E-2,8.186557293E-1
2.288901707E2,-2.540655732E-1,-1.601625085E0,-1.768871665E0
2.291403538E2,1.651159860E-2,-9.017463326E-1,-1.725728393E0
2.293909947E2,1.241033077E-1,8.341020942E-1,1.115331888E0
2.296413304E2,6.711166352E-2,-1.336906850E-1,1.388039589E0
2.298922764E2,2.721750736E-1,1.337439537E0,3.121224940E-1
2.301436497E2,9.970875382E-1,-6.061354876E-1,-2.410693407E0
2.303937413E2,-3.994741663E-2,-3.291667104E-1,-5.352953672E-1
2.306441990E2,8.948221803E-2,3.957457542E-1,1.900964379E0
2.308944432E2,-8.799084425E-1,4.932174385E-1,1.483380795E0
2.311457554E2,-3.600593805E-1,-4.293015897E-1,-1.405616403E0
2.313963658E2,1.906823367E-1,-5.006742850E-2,-1.984587669E0
2.316466099E2,-5.331648588E-1,8.825715780E-1,6.008091569E-1
2.318972813E2,2.167813182E-1,6.141249537E-1,1.676726222E0
2.321473729E2,3.392867148E-1,1.603222936E-1,1.119060278E0
2.323987767E2,1.571265012E-1,-9.214537740E-1,-2.044242382E0
2.326489293E2,-7.989482954E-3,-7.419567108E-1,-1.476989150E0
2.329003331E2,-3.408846259E-2,4.101268202E-2,2.345179796E0
2.331505772E2,-1.258077264E0,6.562029123E-1,1.343831062E0
2.334007908E2,-2.253034264E-1,7.861651778E-1,-1.592570305E0
2.336522252E2,9.342369437E-1,-3.462109566E-1,-2.163019419E0
2.339023472E2,-5.885586143E-1,6.540724039E-1,3.621899337E-2
2.341537205E2,-8.522115648E-2,6.466155052E-1,2.116147757E0
2.344040257E2,-4.426173866E-1,2.039981484E-1,1.286306858E0
2.346551850E2,1.464738697E-1,-1.327319503E0,-1.882322311E0
2.349056428E2,2.444781959E-1,-1.110538244E0,-1.550492406E0
2.351559175E2,-7.989483327E-2,8.388957381E-1,8.346347213E-1
2.354073213E2,-6.348975897E-1,3.312972486E-1,1.720934749E0
2.356573213E2,-1.810949668E-2,8.745821118E-1,3.973436356E-1
2.359078095E2,8.953547478E-1,-1.832254827E-1,-2.012284517E0
2.361579011E2,-3.952131271E-1,-1.896170676E-1,-9.965549111E-1
2.364094270E2,1.944107562E-1,2.711097896E-1,1.799231648E0
2.366595490E2,-7.659251690E-1,-6.285060197E-2,1.451422811E0
2.369108308E2,3.675162494E-1,-8.687231541E-1,-1.409877539E0
2.371613191E2,6.317018270E-1,-3.904194236E-1,-2.046905756E0
2.374113191E2,-2.311623842E-1,1.274588943E0,6.253102422E-1
2.376618684E2,-1.491370201E-1,6.876282096E-1,2.078863621E0
2.379119904E2,-4.985437691E-1,4.016047120E-1,6.572681665E-1
2.381622651E2,6.364955306E-1,-1.812014818E0,-1.851962209E0
2.384127839E2,-1.789644361E-1,-7.685883045E-1,-1.473260760E0
2.386628755E2,-2.130528912E-3,2.737729549E-1,1.784850597E0
2.389134553E2,-5.518069863E-1,2.908172011E-1,1.341167927E0
2.391654084E2,3.771036267E-1,7.297061682E-1,-1.291100502E0
2.394158967E2,8.181231022E-1,-7.989482954E-3,-2.314286947E0
2.396662324E2,-5.326322317E-1,2.434129268E-1,-7.190535218E-2
2.399165681E2,1.816275865E-1,3.563309610E-1,2.282329082E0
2.401668427E2,-8.974853158E-1,7.653924823E-1,1.360342741E0
2.404170258E2,-8.575379103E-2,-1.206944585E0,-1.919606566E0
2.406674531E2,3.110572100E-1,-5.672533512E-1,-1.784850597E0
2.409176362E2,2.439455539E-1,9.108011127E-1,1.188302517E0
2.411678498E2,5.912217870E-2,9.363674521E-1,1.644768357E0
2.414183686E2,-3.126551211E-1,2.732403278E-1,9.278453588E-1
2.416685212E2,7.824367285E-1,-4.846953154E-1,-1.478587031E0
2.419187348E2,-1.970739216E-1,-8.607336879E-1,-1.388039589E0
2.421690095E2,-1.597896591E-2,-4.367584363E-2,1.176051974E0
2.424195283E2,-2.652508616E-1,-1.725728363E-1,1.486576557E0
2.426715425E2,4.495415986E-1,1.906823367E-1,-7.499461770E-1
2.429219087E2,5.597964525E-1,1.864212751E-2,-1.928661346E0
2.431721528E2,-6.045376062E-1,3.669835925E-1,6.498113275E-2
2.434223054E2,-1.693770438E-1,6.721818447E-1,1.513740778E0
2.436727937E2,-8.202536106E-1,2.652508616E-1,1.091896057E0
2.439229463E2,1.667138934E-1,-1.168595076E0,-1.586711407E0
2.441735566E2,-6.498113275E-2,-6.455502510E-1,-1.774197936E0
2.444254487E2,9.374327213E-2,5.528722405E-1,1.221325755E0
2.446757539E2,-4.814995229E-1,2.806971967E-1,1.237837315E0
2.449258759E2,4.048005044E-1,5.187838078E-1,-2.663161140E-3
2.451770966E2,6.332997084E-1,-1.693770438E-1,-2.323341846E0
2.454275576E2,-5.672533512E-1,-1.038632840E-1,-3.866910040E-1
2.456794191E2,3.728425596E-3,5.166532472E-2,2.051699400E0
2.459313417E2,-9.624664187E-1,3.179814517E-1,1.269795179E0
2.461827761E2,9.161274135E-2,-1.012001276E0,-1.268729925E0
2.464330812E2,2.226402760E-1,-6.402239203E-1,-1.942509770E0
2.466832033E2,-2.716424465E-1,1.034904361E0,9.315737486E-1
2.469337832E2,7.776430249E-2,5.981460214E-1,1.769936919E0
2.471837832E2,7.291735411E-1,-4.362258017E-1,8.053399324E-1
2.474357668E2,3.989415467E-1,-8.138620257E-1,-2.542786360E0
2.476858278E2,-3.898867965E-1,-7.009440064E-1,-1.286839485E0
2.479360415E2,-5.432848632E-2,-2.519350350E-1,2.284992218E0
2.481862856E2,-5.683186054E-1,5.166532472E-2,1.123854041E0
2.484365297E2,6.061354876E-1,-3.275688291E-1,-1.004544377E0
2.486884829E2,5.917543769E-1,-1.315601617E-1,-2.517220020E0
2.489385439E2,-5.150553584E-1,8.218515515E-1,4.628573954E-1
2.491885744E2,-9.640643001E-2,9.001484513E-1,2.070341587E0
2.494386049E2,1.992044598E-1,-1.187769845E-1,1.446096539E0
2.496904665E2,5.592638254E-2,-1.494033456E0,-1.886050701E0
2.499407412E2,-6.279733777E-1,-1.715075821E-1,-2.140648842E0
2.501908632E2,4.948153496E-1,3.158509135E-1,2.200836420E0
2.504410769E2,-9.076052904E-1,5.992112756E-1,1.793905377E0
2.506929079E2,2.822950780E-1,3.723099232E-1,-6.013417840E-1
2.509432131E2,7.467503548E-1,-6.418218613E-1,-2.519883156E0
2.511933352E2,-2.066612989E-1,-2.130528986E-1,-2.695119083E-1
2.514434572E2,-2.332929224E-1,4.644553065E-1,1.944107652E0
2.516951662E2,4.372910559E-1,-3.392867148E-1,1.524926066E0
2.519452272E2,-7.025418878E-1,-6.732471585E-1,-1.956890821E0
2.521953798E2,1.816275865E-1,1.693770438E-1,-2.221609116E0
2.524456240E2,-2.876213938E-2,8.676578999E-1,1.387506962E0
2.526975466E2,2.066612989E-1,1.725728363E-1,2.376605034E0
2.529494692E2,1.688444167E-1,3.206445873E-1,8.511462808E-1
2.531996218E2,-2.471413612E-1,-2.380866110E-1,-2.952380419E0
2.534496523E2,-5.645901710E-2,-4.202468395E-1,-1.335841656E0
2.536996828E2,-5.858954787E-1,4.261057973E-1,2.405367136E0
2.539498659E2,4.687163532E-1,-2.130528986E-1,1.511077642E0
2.541999575E2,-3.664509654E-1,2.625876963E-1,-1.491902828E0
2.544500185E2,7.387608886E-1,-1.134506613E-1,-2.075135231E0
2.547000795E2,-4.032025933E-1,7.563377619E-1,-3.281014562E-1
2.549501101E2,6.508765817E-1,3.392867148E-1,2.119343519E0
2.552003237E2,-1.352885813E-1,-1.235706806E-1,1.589374542E0
2.554505373E2,6.972155571E-1,-1.643170476E0,-1.764077902E0
2.557007204E2,5.432848632E-2,-7.968178391E-1,-2.005892992E0
2.559525515E2,-1.049285457E-1,6.247776151E-1,1.385909081E0
2.562045351E2,1.842907518E-1,2.359560728E-1,1.789644241E0
2.564547182E2,3.036003746E-2,6.119944453E-1,1.246359423E-1
2.567047792E2,8.756473660E-1,-4.735100567E-1,-2.167280436E0
2.569549318E2,-1.068460226E0,6.072007492E-2,-5.896238685E-1
2.572068239E2,6.103965044E-1,-1.864212751E-1,2.054362535E0
2.574587770E2,-8.878979087E-1,3.659183383E-1,1.285241604E0
2.577088991E2,7.403588295E-2,-3.126551211E-1,-1.797101140E0
2.579591433E2,5.012069345E-1,-4.740426689E-2,-2.594451666E0
2.582092958E2,-3.211772442E-1,7.334345579E-1,1.211738348E0
2.584592958E2,3.083940744E-1,6.487460732E-1,2.465021849E0
2.587092958E2,-8.522115648E-2,2.087918371E-1,9.012137055E-1
2.589610847E2,6.375607848E-1,-1.281513095E0,-1.723597884E0
2.592111763E2,-4.458131790E-1,-1.089765549E0,-1.752892613E0
2.594612678E2,-2.551308274E-1,-9.108011425E-2,1.668736815E0
2.597112678E2,-6.444849968E-1,3.787015080E-1,1.398692250E0
2.599632210E2,3.227751255E-1,2.647182047E-1,-4.841626883E-1
2.602151741E2,8.303736448E-1,-1.374191195E-1,-2.086853027E0
2.604653877E2,-5.997439027E-1,2.727077007E-1,-1.869539171E-1
2.607154487E2,-1.901497096E-1,6.471481323E-1,1.955825567E0
2.609656013E2,-3.632551730E-1,2.732403278E-1,7.856325507E-1
2.612174324E2,9.299758673E-1,-1.544100881E0,-1.461542845E0
2.614677376E2,3.515372574E-1,-9.859022498E-1,-1.599494576E0
2.617180427E2,-4.159857631E-1,9.917612076E-1,1.170725584E0
2.619700264E2,-5.784385800E-1,1.523328125E-1,1.601625085E0
2.622202095E2,5.203816891E-1,2.956108749E-1,-4.612595141E-1
2.624703621E2,6.833671331E-1,-7.408914566E-1,-2.132126808E0
2.627223457E2,-9.933590889E-1,-8.841694891E-2,-3.962783813E-1
2.629724373E2,5.502091050E-1,-2.908172011E-1,2.088983536E0
2.632224983E2,-4.585963488E-1,4.426173866E-1,1.034904361E0
2.634725593E2,6.551376730E-2,-8.953547478E-1,-1.530252337E0
2.637227730E2,5.267732739E-1,-6.056028605E-1,-1.967010856E0
2.639730781E2,-5.070658922E-1,9.949570298E-1,4.964132309E-1
2.642231392E2,-2.114549875E-1,6.498113275E-1,2.090048790E0
2.644731697E2,1.619201899E-1,3.467435837E-1,1.364603758E0
2.647231697E2,2.775014043E-1,-6.290386319E-1,-1.702292562E0
2.649733833E2,-6.940197945E-1,-6.242449880E-1,-1.554220796E0
2.652253670E2,-2.695119083E-1,1.171790902E-2,1.528654456E0
2.654754890E2,-4.607268870E-1,-5.006742850E-2,1.090830803E0
2.657256721E2,3.083940744E-1,5.752427876E-2,-5.150553584E-1
2.659776558E2,7.936220169E-1,1.502022892E-1,-2.724946499E0
2.662295784E2,-8.298410177E-1,5.997439027E-1,-3.728425503E-1
2.664797310E2,4.154531285E-2,-2.737729549E-1,2.832538128E0
2.667298530E2,-8.058725595E-1,3.398193717E-1,1.028512836E0
2.669799751E2,3.701793849E-1,-8.410263062E-1,-1.887648582E0
2.672300361E2,3.536677957E-1,5.118595958E-1,-1.914812803E0
2.674800972E2,2.205097377E-1,2.498045117E-1,1.544633508E0
2.677301582E2,-6.194512844E-1,8.442220688E-1,1.416801691E0
2.679804939E2,-6.338323653E-2,-9.571400881E-1,4.170510471E-1
2.682304939E2,9.416937828E-1,-2.972087860E-1,-1.634648323E0
2.684806160E2,2.636529505E-1,7.297061384E-2,-1.071655989E0
2.687324776E2,-5.187838078E-1,-1.108407617E0,1.509479761E0
2.689826301E2,-4.351605177E-1,-2.061286718E-1,5.779059529E-1
2.692327522E2,6.854977012E-1,3.552657068E-1,3.195793368E-3
2.694828743E2,9.970875382E-1,7.153250575E-1,-1.641039848E0
2.697330269E2,-1.496696621E-1,-1.970739216E-1,2.450108156E-2
2.699831795E2,-3.366235793E-1,5.081311464E-1,1.109472990E0
2.702333320E2,-1.688444167E-1,-2.343581766E-1,-3.355583176E-2
2.704848274E2,4.868258536E-1,-6.673882008E-1,-9.709885716E-1
2.707348579E2,7.233145833E-1,-4.846953228E-2,-8.607336879E-1
2.709850715E2,5.326322280E-4,4.916195571E-1,8.980179429E-1
2.712350715E2,1.715075821E-1,-1.651159860E-2,3.605920076E-1
2.714854378E2,-1.113201380E-1,1.358212233E-1,-1.581917703E-1
2.717354683E2,2.013349831E-1,3.712446690E-1,-6.769755483E-1
2.719867500E2,-4.277036786E-1,-7.121292949E-1,9.960222989E-2
2.722368721E2,-7.472830415E-1,-7.254450917E-1,2.073537350E0
2.724871467E2,-7.297061682E-1,-1.731054783E-1,1.011468649E0
2.727381515E2,5.965480953E-2,2.796319127E-1,-1.084439158E0
2.729901351E2,5.033374429E-1,-5.858954415E-2,-1.915345550E0
2.732403487E2,-4.676510990E-1,1.832254827E-1,-1.651159860E-2
2.734903487E2,6.870955825E-1,-2.769687586E-2,1.863147497E0
2.737405624E2,-8.010788560E-1,2.929477394E-1,1.177649856E0
2.739906234E2,1.209075153E-1,-6.753776670E-1,-1.039165497E0
2.742409286E2,5.219795704E-1,-9.912285805E-1,-1.792840123E0
2.744909591E2,-4.159857631E-1,1.104679227E0,7.723167539E-1
2.747410201E2,-2.024002522E-1,8.676578999E-1,1.530252337E0
2.749911117E2,-5.805691332E-2,1.747033745E-1,8.713863492E-1
2.752412338E2,-1.075917110E-1,-9.070726633E-1,-1.682052612E0
2.754912338E2,-7.510114461E-2,-6.679208279E-1,-1.713477850E0
2.757414779E2,-3.243730366E-1,1.459412277E-1,1.252218366E0
2.759915695E2,-3.222424984E-1,2.183792181E-2,1.181378245E0
2.762417220E2,2.993393242E-1,2.237055451E-2,1.235706806E-1
2.764937057E2,9.582054019E-1,3.531351686E-1,-1.955292940E0
2.767440719E2,-4.729774296E-1,1.059938148E-1,-5.699164867E-1
2.769943160E2,1.757686287E-1,2.492718846E-1,1.073786616E0
2.772445907E2,-9.347695708E-1,5.326322466E-2,1.281513095E0
2.774959029E2,7.185208797E-1,-1.558481932E0,-1.513208151E0
2.777459029E2,7.520766854E-1,-8.463526368E-1,-1.773665309E0
2.779961471E2,2.913498282E-1,1.249555230E0,9.422264099E-1
2.782474899E2,-1.592570394E-1,2.002697140E-1,1.609081984E0
2.784975204E2,-3.142530099E-2,8.479505181E-1,7.233145833E-1
2.787495040E2,3.099919558E-1,-1.416801661E-1,-2.370213509E0
2.789998397E2,1.651159860E-2,-9.155948162E-1,-9.965549111E-1
2.792500228E2,-4.202468395E-1,-1.523328125E-1,1.695368409E0
2.795002364E2,-4.793690145E-1,-1.667138934E-1,1.229315162E0
2.797514877E2,3.147856593E-1,2.764361203E-1,-7.227819562E-1
2.800017623E2,8.596684337E-1,-4.404868484E-1,-2.398975611E0
2.802518234E2,-1.037567616E0,3.691141307E-1,-1.858886480E-1
2.805033187E2,-2.817624509E-1,4.207794741E-2,2.164084673E0
2.807534408E2,-3.302319944E-1,-1.986718178E-1,1.268197298E0
2.810037113E2,5.699164793E-2,-1.209075212E0,-1.616006136E0
2.812539249E2,1.097222418E-1,-3.488741219E-1,-2.385127068E0
2.815041080E2,-7.009440064E-1,1.233043551E0,1.125451922E0
2.817541691E2,3.755057156E-1,2.226402760E-1,2.181661606E0
2.820055118E2,-1.262338310E-1,4.506068528E-1,9.550095797E-1
2.822557865E2,2.050634027E-1,-1.182976127E0,-1.651692510E0
2.825059696E2,-5.432848632E-2,-9.262474179E-1,-1.559014559E0
2.827561222E2,-2.945456207E-1,4.287689328E-1,8.522115946E-1
2.830063358E2,1.970739216E-1,-6.498113275E-2,1.737978935E0
2.832564274E2,4.900216311E-2,5.986786485E-1,4.282363057E-1
2.835066410E2,3.355582952E-1,-1.608549356E-1,-2.388322830E0
2.837568851E2,-1.842907518E-1,-3.110572100E-1,-7.595335841E-1
2.840071293E2,-3.036003746E-2,1.922802329E-1,1.974467635E0
2.842574039E2,-2.833603323E-1,8.042746782E-2,1.676193595E0
2.845075565E2,7.563377917E-2,2.663161159E-1,-7.387608886E-1
2.847575870E2,3.323625028E-1,-1.065264456E-3,-2.656769514E0
2.850078617E2,-5.789712071E-1,5.336974859E-1,-2.077265643E-2
2.852598148E2,5.597964525E-1,-1.065264493E-1,2.463423967E0
2.855100284E2,-9.422264099E-1,1.587243974E-1,1.555818796E0
2.857602726E2,7.318366766E-1,-1.855690718E0,-1.635180950E0
2.860106083E2,2.689792812E-1,-7.259777188E-1,-2.172606945E0
2.862607303E2,-1.976065636E-1,1.086569786E0,5.368933082E-1
2.865107609E2,7.728493810E-1,-8.788431436E-2,2.748914957E0
2.867608829E2,-2.524676621E-1,1.273523688E0,8.868326545E-1
2.870110050E2,9.422264099E-1,-1.031175971E0,-2.802178144E0
2.872610355E2,-1.096157074E0,-4.367584288E-1,-1.255414128E0
2.875110966E2,3.291667104E-1,-4.335626364E-1,2.634931564E0
2.877614017E2,-4.543353021E-1,2.775014043E-1,1.090830803E0
2.880115848E2,3.414172530E-1,3.371562064E-1,-9.933590889E-1
2.882617985E2,9.683253765E-1,1.331580579E-1,-2.947054148E0
2.885120731E2,-4.293015897E-1,3.648530841E-1,2.482066154E-1
2.887624393E2,6.135923266E-1,-9.214537591E-2,2.824016094E0
2.890127140E2,-1.298557401E0,9.342369437E-1,1.215466738E0
2.892628971E2,-2.375539690E-1,-9.795106649E-1,-1.967010856E0
2.895129276E2,1.113201380E-1,-3.755057156E-1,-2.398442984E0
2.897631718E2,3.792341352E-1,9.459548593E-1,1.262871027E0
2.900133854E2,1.533980817E-1,8.032094240E-1,2.431466103E0
2.902636295E2,1.544633508E-2,6.769755483E-1,1.129712939E0
2.905137516E2,3.829625845E-1,-1.326786876E0,-2.335592270E0
2.907657352E2,-7.568703890E-1,-4.788363874E-1,-1.425323844E0
2.910158878E2,2.780340314E-1,-3.217098713E-1,2.779274940E0
2.912661014E2,-1.117995024E0,1.106277108E0,1.437041759E0
2.915173527E2,1.560612470E-1,3.685815036E-1,-1.761414766E0
2.917673827E2,3.621899337E-2,5.320996046E-1,-2.728142262E0
2.920193358E2,-1.174454093E0,6.199839115E-1,1.173388839E0
2.922696410E2,6.109291911E-1,4.804342687E-1,2.380333424E0
2.925198546E2,2.237055302E-1,-8.080030680E-1,1.415203810E0
2.927711364E2,4.090615511E-1,-1.909486532E0,-2.374474525E0
2.930215636E2,3.376888335E-1,-8.133293986E-1,-2.232261658E0
2.932718993E2,-5.944175720E-1,5.155879855E-1,2.418150425E0
2.935221435E2,5.704491138E-1,5.491438508E-1,1.610679865E0
2.937722350E2,8.575379103E-2,5.848301649E-1,-9.768475294E-1
2.940235473E2,4.021373391E-1,-2.892192900E-1,-2.881540298E0
2.942736998E2,-9.890980721E-1,4.149205089E-1,5.273059011E-2
2.945240355E2,5.241101384E-1,-2.290318608E-1,3.323092461E0
2.947743407E2,-1.115331888E0,5.986786485E-1,1.068992853E0
2.950243712E2,-6.311691999E-1,-1.475391269E0,-2.116147757E0
2.952749205E2,-1.880191714E-1,-3.115898669E-1,-2.746251822E0
2.955250426E2,-1.773665249E-1,6.045376062E-1,1.750229478E0
2.957755614E2,4.090615511E-1,3.440804183E-1,1.839179039E0
2.960256835E2,3.355583176E-2,8.974853158E-1,5.438175201E-1
2.962769042E2,3.137203753E-1,-3.760383427E-1,-2.690858126E0
2.965285216E2,-7.542072535E-1,-4.420847595E-1,-9.235842824E-1
2.967785827E2,-3.515372798E-2,2.727077007E-1,2.148638487E0
2.970287658E2,-1.005077004E0,-6.322344542E-1,1.643170476E0
2.972789184E2,2.769687474E-1,-8.980179429E-1,-1.294828892E0
2.975289794E2,5.576659441E-1,-3.355582952E-1,-2.639192581E0
2.977805358E2,-4.340952635E-1,8.362326026E-1,4.894890189E-1
2.980305358E2,-1.736381054E-1,5.422195792E-1,2.897519350E0
2.982809020E2,-2.812298238E-1,9.731190801E-1,1.111070871E0
2.985315123E2,2.077265680E-1,-1.198422551E0,-2.225337505E0
2.987818786E2,-9.214537591E-2,-3.989415467E-1,-1.653290391E0
2.990324279E2,-9.539443254E-1,3.701793849E-1,1.805623293E0
2.992826415E2,-3.137203753E-1,-1.347559541E-1,1.416269064E0
2.995327025E2,5.534048676E-1,4.436826408E-1,-9.853696227E-1
2.997843505E2,7.403587699E-1,3.728425503E-2,-2.968359470E0
