"Time (s)","Acceleration x (m/s^2)","Acceleration y (m/s^2)","Acceleration z (m/s^2)"
0.000000000E0,2.566344833E1,1.632366753E1,6.442796707E0
2.500610350E-1,4.718971729E0,1.103726959E1,4.156333923E0
5.001525880E-1,4.505887508E0,-1.989581585E0,-7.972691655E-1
7.502441410E-1,2.668098450E1,1.218648624E1,1.338358760E0
1.001739502E0,-4.429273129E0,6.268020153E0,1.355118155E0
1.253082275E0,9.287108421E0,1.819593310E-1,-9.624691010E-1
1.504364014E0,1.078348446E1,3.945644379E0,-3.543418646E-1
1.755004883E0,-4.189853191E0,8.702922821E0,3.591302633E-1
2.006225586E0,1.222000504E1,4.623203278E0,3.543418407E0
2.257385254E0,8.631096840E0,-1.620874524E0,-2.310404539E0
2.508483887E0,-3.490746021E0,8.698134422E0,3.758896589E-1
2.760162354E0,1.331655025E1,6.512228489E0,1.537077546E0
3.011413574E0,1.075475407E1,-2.250549555E0,-2.667140722E0
3.262847900E0,-1.046266198E0,7.800309181E0,2.403778553E0
3.513946533E0,1.858618736E1,1.235168648E1,7.254431248E-1
3.764923096E0,8.851364136E0,-2.952050686E0,-4.448426723E0
4.016113281E0,6.560112834E-1,7.077260017E0,2.726995707E0
4.267486572E0,2.088462067E1,1.919910431E1,2.418143749E0
4.518707275E0,4.697423935E0,-6.624756336E0,-5.509057999E0
4.770050049E0,9.241618514E-1,8.729259491E0,3.543418407E0
5.021209717E0,1.424071217E1,1.646731949E1,4.000710964E0
5.272030261E0,2.822763920E0,-5.329493046E0,-3.586514235E0
5.523311999E0,3.627215624E0,1.007001209E1,1.714248419E0
5.774654773E0,1.894531822E1,2.455732727E1,1.180580902E1
6.026150134E0,8.020575643E-1,-8.480262756E0,-3.694253206E0
6.277645495E0,2.609679937E0,1.154244614E1,1.656787634E0
6.528988269E0,1.103248119E1,1.802594376E1,7.228095055E0
6.780270007E0,1.731007814E0,-7.869740963E0,-3.497928619E0
7.031673816E0,6.275202751E0,1.336922264E1,-3.567360640E-1
7.283169177E0,1.524388218E1,1.983596039E1,6.921637058E0
7.534328845E0,1.580173135E0,-6.584054470E0,-2.094926596E0
7.785610583E0,1.331894398E1,1.467645645E1,4.867412090E0
8.036587146E0,9.476250648E0,1.318486881E1,7.366958618E0
8.287960437E0,2.212242365E0,-5.233725071E0,-1.675941199E-1
8.538814929E0,1.477940750E1,1.714727211E1,-3.679888010E0
8.790005115E0,5.949591160E0,1.382890892E1,7.570465565E0
9.041256335E0,2.238578558E0,-5.152322292E0,-2.219424963E0
9.292568591E0,1.760456467E1,1.808101082E1,8.243236542E0
9.543392566E0,5.202600479E0,1.232774448E1,5.260061264E0
9.794582751E0,2.296039343E0,-4.465186119E0,-1.728613615E0
1.004571190E1,2.051591492E1,1.939782143E1,5.908889771E0
1.029717674E1,3.232172251E0,1.206438255E1,5.901707172E0
1.054870262E1,2.425326347E0,-4.218583584E0,4.070143029E-2
1.079998436E1,2.367625999E1,1.381454372E1,2.983175278E0
1.105141869E1,-4.908113480E-1,9.526528358E0,3.014299870E0
1.130270043E1,5.035006046E0,-3.043030262E0,-3.615244627E-1
1.155382958E1,1.273715305E1,6.488286495E0,3.055001259E0
1.180547753E1,-5.671864033E0,6.871358871E0,9.457096457E-1
1.205636254E1,1.195424938E1,5.324704647E0,7.223306656E0
1.230764428E1,1.137485218E1,2.106897593E0,-3.040636182E-1
1.255889550E1,-5.872976780E0,5.731719017E0,-9.145850539E-1
1.281002465E1,1.134612179E1,7.666234016E0,5.363011837E0
1.306142845E1,1.174595356E1,-7.541735172E-1,-8.667010069E-1
1.331255760E1,-8.619125932E-2,7.220912457E0,2.193088770E0
1.356402245E1,7.580042362E0,5.951985359E0,3.610456228E0
1.381521263E1,1.479856110E1,-2.829946518E0,-1.831564307E0
1.406673851E1,2.580949545E0,1.165497398E1,1.233013868E0
1.431737938E1,1.442506504E1,9.208099365E0,-2.154781520E-1
1.456872216E1,6.806715488E0,-5.401319027E0,-4.177882195E0
1.482061425E1,2.035071373E0,1.222479343E1,2.758120298E0
1.507214012E1,1.602439117E1,1.051772785E1,7.781155586E0
1.532354393E1,1.357512355E0,-6.215347767E0,-1.601720929E0
1.557494774E1,5.169081688E0,1.031182671E1,2.964021683E0
1.582616844E1,1.845211220E1,2.094687080E1,1.395101357E1
1.607748070E1,1.039083481E0,-7.953537941E0,-4.508281708E0
1.632897606E1,7.273584843E0,1.210508347E1,-7.829039693E-1
1.658047142E1,8.798690796E0,1.572990513E1,5.640739441E0
1.683181420E1,3.280056238E0,-5.463568211E0,-6.488286853E-1
1.708303490E1,1.737472153E1,2.251986122E1,6.138733387E0
1.733440819E1,7.752425194E0,1.591186428E1,8.212111473E0
1.758572045E1,6.232107162E0,-2.755726099E0,6.560112834E-1
1.783724633E1,1.642901230E1,1.910573006E1,9.624691010E0
1.808861962E1,7.733271599E0,1.342189503E1,9.275136948E0
1.834026757E1,5.861005783E0,-4.084507942E0,3.232172430E-1
1.859142723E1,1.866998482E1,1.890940475E1,9.706093788E0
1.884228173E1,8.913613319E0,1.625902367E1,9.801861763E0
1.909341088E1,6.296750546E0,-1.331176162E0,7.038952708E-1
1.934441796E1,2.406651497E1,1.504995155E1,9.892841339E0
1.959591332E1,3.050212860E0,1.114022064E1,4.771644115E0
1.984737816E1,4.548983097E0,-9.481038451E-1,3.227383852E0
2.009859886E1,2.267069626E1,1.176989555E1,3.344699860E0
2.034966698E1,-2.398990154E0,1.008677197E1,2.128445387E0
2.060073510E1,5.279214859E0,-3.327940404E-1,5.070919037E0
2.085171166E1,9.586383820E0,5.298368454E0,-1.733402014E0
2.110277977E1,-3.857059002E0,7.857769966E0,-7.278373241E-1
2.135384789E1,9.753977776E0,6.749254704E0,4.781220913E0
2.160531273E1,9.880870819E0,1.165976286E0,-1.699883223E0
2.185641136E1,1.055842996E0,9.449913979E0,-1.007958889E0
2.210747948E1,7.941566944E0,1.023042393E1,2.959233284E0
2.235815087E1,1.053448772E1,-2.178723574E0,-4.584896088E0
2.260928002E1,1.357512355E0,8.458714485E0,4.929661274E0
2.286037865E1,7.371747017E0,1.310585976E1,5.968744755E0
2.311132470E1,3.890577793E0,-6.598419666E0,-4.886565685E0
2.336184349E1,3.933673382E0,1.081221485E1,8.355764151E-1
2.361306420E1,1.586398029E1,1.791581154E1,1.318247414E1
2.386391869E1,3.507505417E0,-5.638344765E0,-2.961627483E0
2.411501732E1,6.002263546E0,1.253125191E1,-1.070208192E0
2.436654320E1,1.139400578E1,1.434845066E1,1.612734222E1
2.461791649E1,2.657563925E0,-1.845929503E0,-2.149993181E0
2.486907616E1,3.514688015E0,1.488714600E1,1.446097851E0
2.512005272E1,1.745373011E0,1.429577827E1,9.021351814E0
2.537139550E1,3.639186621E0,-4.728548527E0,-1.757344007E0
2.562252465E1,1.395340729E1,1.656308746E1,1.841141105E0
2.587325707E1,9.045293808E0,1.397495556E1,5.305551052E0
2.612450829E1,3.881000996E0,-3.744531393E0,-4.405331016E-1
2.637569847E1,2.040338707E1,1.851436234E1,3.313575268E0
2.662670555E1,4.893748283E0,1.137006378E1,6.275202751E0
2.687810936E1,4.620809078E0,-1.891419291E0,3.308786631E0
2.712920800E1,2.591005135E1,1.549287891E1,1.100375080E1
2.738045922E1,-2.319981337E0,1.194706631E1,6.682217121E0
2.763149681E1,4.958391666E0,3.591302633E-1,1.206677675E0
2.788280907E1,8.255207062E0,4.125209332E0,-2.724601507E0
2.813421288E1,-1.987187386E0,8.667010307E0,-1.498770237E0
2.838549462E1,9.471462250E0,5.516240597E0,3.055001259E0
2.863671532E1,1.152089882E1,-9.935936928E-1,-2.896983922E-1
2.888811913E1,5.219359994E-1,6.296750546E0,1.103726983E0
2.913912621E1,9.682151794E0,1.251209831E1,2.868253708E0
2.939040795E1,4.553771496E0,-4.311957359E0,-4.568136692E0
2.964120140E1,4.304774761E0,1.069250488E1,-1.211466074E0
2.989220848E1,1.154005241E1,1.930205345E1,5.621585369E0
3.014336815E1,1.161187768E0,-5.288791656E0,-3.282450438E0
3.039468041E1,1.194467258E1,1.558864689E1,3.792415380E0
3.064568749E1,7.074865818E0,1.420479870E1,9.109937668E0
3.089696923E1,3.969586372E0,-3.655946016E0,5.961562395E-1
3.114812889E1,2.315911293E1,2.093729401E1,7.477091789E0
3.139928856E1,3.203441858E0,1.080982113E1,3.191470861E0
3.165047875E1,4.185064793E0,-5.626373887E-1,1.527500629E0
3.190154686E1,1.309867764E1,1.326866627E1,-2.161964178E0
3.215258446E1,-6.291962147E0,7.721300602E0,1.558625340E0
3.240368309E1,8.621520042E0,5.791574001E0,3.136404276E0
3.265456810E1,1.129823780E1,3.670311213E0,2.964021683E0
3.290541816E1,-9.959878922E-1,5.645527840E0,-2.633621991E-1
3.315648627E1,6.117185116E0,1.414973164E1,3.924096584E0
3.340737128E1,7.920019150E0,-2.545036316E0,-4.529829502E0
3.365850043E1,4.019864559E0,9.241618156E0,1.290474772E0
3.390972113E1,1.091277122E1,1.725740623E1,9.646238327E0
3.416078925E1,2.454056740E0,-4.778826714E0,-2.621650934E0
3.441197943E1,7.125144482E0,1.488475227E1,-3.950432837E-1
3.466307807E1,1.323993564E0,1.529655457E1,5.932831764E0
3.491408515E1,3.035847664E0,-3.581725836E0,-2.276885748E0
3.516490912E1,1.665167236E1,2.038662720E1,4.740519524E0
3.541597724E1,6.294356346E0,1.532528496E1,6.907271862E0
3.566692328E1,5.547365189E0,-1.824381709E0,2.437297344E0
3.591780829E1,1.700122643E1,1.870829201E1,6.938396454E0
3.616905951E1,-2.590526342E0,9.445125580E0,3.174711466E0
3.642015814E1,6.007051945E0,4.613626480E0,1.007958889E0
3.667101264E1,3.902548790E0,3.086126089E0,3.639186621E-1
3.692223334E1,-4.618414879E0,4.477157116E0,6.536170840E-1
3.717351508E1,1.023521233E1,1.633324432E1,4.644751072E0
3.742470526E1,1.459984207E1,1.750161409E0,-1.929726601E0
3.767562079E1,-5.363011956E-1,8.482656479E0,-2.238578558E0
3.792668891E1,7.302315235E0,1.541626453E1,2.511517525E0
3.817763495E1,4.211400986E0,-4.608838081E0,-2.140416384E0
3.842870307E1,5.370194435E0,1.124317074E1,5.985504389E-2
3.867983222E1,4.551377296E0,1.663012505E1,8.432378769E0
3.893117499E1,4.728548527E0,-1.170764685E0,-1.685518026E0
3.918242621E1,1.531331444E1,1.951274300E1,1.101332760E1
3.943337226E1,6.895300865E0,1.571075153E1,7.290344238E0
3.968450141E1,5.820304394E0,-1.989581585E0,9.504981041E-1
3.993517279E1,1.381693840E1,1.881603050E1,5.094861031E0
4.018617987E1,2.765302896E0,1.574427032E1,8.125920296E0
4.043737006E1,2.743755102E0,-1.005564690E0,-4.141969085E-1
4.068843817E1,1.067813969E1,1.310346603E1,-9.959878922E-1
4.093941474E1,-4.625597477E0,6.866570473E0,3.902548850E-1
4.119048285E1,8.516175270E0,6.873753071E0,4.572925091E0
4.144185614E1,1.005085850E1,2.513911724E0,-1.209071875E0
4.169268012E1,-9.864110947E-1,7.596801758E0,1.762132406E0
4.194405341E1,1.062786102E1,1.153765774E1,3.608062029E0
4.219484686E1,5.985504150E0,-3.780444384E0,-2.463633537E0
4.244600653E1,-2.322375625E-1,9.722852707E0,-4.716577232E-1
4.269713568E1,1.735556793E1,1.844732475E1,7.575253963E0
4.294792914E1,1.247379065E0,-6.246472359E0,-1.989581585E0
4.319866156E1,6.605602264E0,1.317768574E1,2.466027737E0
4.345000434E1,7.247248650E0,1.970667458E1,5.049371243E0
4.370018744E1,2.099714994E0,-6.153098583E0,-3.919308186E0
4.395159125E1,1.406354046E1,1.993172836E1,1.637633920E0
4.420284247E1,6.440402508E0,1.533486176E1,5.755661011E0
4.445406317E1,5.221754074E0,-2.063801765E0,-2.688688517E0
4.470503974E1,2.574485016E1,2.128924179E1,1.163582039E1
4.495610785E1,-4.644751251E-1,1.342907715E1,8.209717751E0
4.520729804E1,3.107673883E0,1.580173075E-1,-1.211466074E0
4.545842719E1,9.442731857E0,9.945513725E0,-4.453215301E-1
4.570934272E1,-6.531382084E0,1.006043530E1,5.058948040E0
4.596041083E1,8.693346024E0,6.358999729E0,3.217807055E0
4.621160102E1,1.257195282E1,2.688688517E0,8.667010069E-1
4.646294379E1,-2.070984364E0,5.698200226E0,2.549824715E0
4.671413398E1,4.884171486E0,1.418085670E1,3.529053211E0
4.696544623E1,4.766855717E0,-5.154716492E0,-3.715801001E0
4.721657538E1,3.143586874E0,1.047463226E1,-2.202665508E-1
4.746758246E1,8.020575523E0,2.005143929E1,7.742848396E0
4.771868109E1,3.687070608E-1,-5.746084213E0,-2.501940727E0
4.796971869E1,9.208099365E0,1.904108620E1,4.934449673E0
4.822090888E1,4.426878929E0,1.487038708E1,5.856217384E0
4.847203803E1,4.216189384E0,-3.038241863E0,5.458779931E-1
4.872301459E1,1.508107662E1,2.210805893E1,7.137115479E0
4.897432685E1,-1.731007814E0,1.143949604E1,2.511517525E0
4.922539496E1,3.541024208E0,1.484405100E-1,-3.711012602E-1
4.947655463E1,1.262701988E1,1.524867058E1,-2.782062292E0
4.972753119E1,-6.785167694E0,8.283937454E0,1.910573006E0
4.997875190E1,6.658275127E0,5.542576790E0,2.121262789E0
5.022972846E1,5.291185856E0,1.046266198E0,-2.664746523E0
5.048104071E1,-1.850717902E0,4.841075897E0,1.403002143E0
5.073256659E1,1.167173290E1,1.251688671E1,5.992686749E0
5.098348212E1,7.192182064E0,-6.138733387E0,-2.154781483E-2
5.123436713E1,1.139639974E0,9.002198219E0,3.852270603E0
5.148561835E1,8.746018410E0,1.717839813E1,2.904166698E0
5.173656440E1,1.467645645E0,-7.635109425E0,-3.052607059E0
5.198775458E1,4.580107689E0,1.178904915E1,-8.499416113E-1
5.223891425E1,9.150638580E0,2.082955551E1,9.193734169E0
5.249028754E1,-1.077390760E-1,-7.714118004E0,-3.016694188E-1
5.274141669E1,1.431732655E1,1.905784607E1,1.537077546E0
5.299227118E1,8.015787125E0,1.361821938E1,6.722918510E0
5.324349189E1,5.073313236E0,-3.303998232E0,-1.048660398E0
5.349440741E1,2.270421410E1,1.898123169E1,8.588001251E0
5.374568915E1,-1.412579060E0,1.094389629E1,3.236960649E0
5.399694037E1,3.502717018E0,1.127668977E0,3.351882473E-2
5.424825263E1,2.492363930E0,3.873818398E0,-3.543418407E0
5.449965644E1,-2.595314741E0,1.023042393E1,-9.169792533E-1
5.475075507E1,8.243236542E0,1.022324085E1,4.647145271E0
5.500176215E1,1.089361763E1,-1.553836942E0,1.484405100E-1
5.525313544E1,3.854664862E-1,9.897629738E0,1.414973259E0
5.550402045E1,1.218648624E1,1.700601387E1,2.149993181E0
5.575505805E1,2.841917515E0,-7.558494568E0,-1.721431017E0
5.600579047E1,-3.567360640E-1,1.136527538E1,1.984793186E0
5.625713324E1,8.133103371E0,2.190933990E1,8.228871346E0
5.650814032E1,3.119644880E0,-5.157110691E0,-1.271321058E0
5.675917792E1,1.084812832E1,2.114080048E1,-4.477157295E-1
5.701039862E1,4.338293552E0,1.080742645E1,1.848323703E0
5.726134467E1,4.295197964E0,-1.613691926E0,1.007958889E0
5.751253485E1,2.384385490E1,2.367386627E1,5.719748020E0
5.776378607E1,-5.506663769E-2,1.367328548E1,7.086836815E0
5.801482367E1,4.809951305E0,2.130839527E-1,-3.902548850E-1
5.826604438E1,6.710947514E0,7.613561630E0,-3.665522814E0
5.851744818E1,-5.006275654E0,6.148310184E0,1.778891921E0
5.876830268E1,9.583989143E0,8.597578049E0,4.398148537E0
5.901927924E1,1.121204662E1,8.882488012E-1,-1.453280449E0
5.927080512E1,-6.584054828E-1,6.318298340E0,4.745307922E0
5.952184272E1,8.801085472E0,1.360864258E1,2.983175278E0
5.977303290E1,2.147598982E0,-5.937620163E0,-3.201047659E0
6.002468085E1,2.308010340E0,1.086728191E1,-2.882618904E0
6.027562690E1,8.564059258E0,2.069787407E1,3.500322819E0
6.052675605E1,3.682282209E0,-2.451662540E0,5.219359994E-1
6.077797675E1,1.618001556E1,2.153105545E1,2.394201607E-2
6.102922797E1,6.962338448E0,1.482489681E1,4.556165695E0
6.128038764E1,3.244143248E0,-1.814804912E0,1.460463047E0
6.153142524E1,1.804270363E1,1.745372963E1,6.265625954E0
6.178261542E1,-1.273715258E0,1.114261436E1,4.649539471E0
6.203398871E1,4.096478939E0,3.136404157E-1,1.077390790E0
6.228514838E1,1.029985619E1,1.096304989E1,-3.213018656E0
6.253630805E1,-4.563348293E0,6.301538944E0,2.688688517E0
6.278749823E1,8.480262756E0,9.294290543E0,2.442085743E0
6.303841376E1,1.393425369E1,-7.015010715E-1,6.560112834E-1
6.328960395E1,1.699883193E-1,6.610390663E0,2.458845139E0
6.354061103E1,5.305551052E0,1.213860226E1,2.279279947E0
6.379167914E1,6.011840343E0,-5.537788391E0,-3.157952070E0
6.404286933E1,5.485116005E0,1.188481712E1,-6.200982332E-1
6.429378485E1,8.101978302E0,1.839704514E1,6.476315498E0
6.454488349E1,5.552153587E0,-4.738125324E0,-2.264914751E0
6.479613471E1,1.892377090E1,2.312559509E1,5.432443619E0
6.504781317E1,8.099584579E0,1.489911747E1,8.906430244E0
6.529924750E1,4.683058739E0,-3.232172430E-1,1.103726983E0
6.555043769E1,1.710657120E1,1.051054573E1,1.407072353E1
6.580043769E1,-4.453215301E-1,9.595960617E0,1.060631371E1
6.605184149E1,5.774814606E0,2.619256735E0,1.292868853E-1
6.630290961E1,9.452308655E0,5.499481201E0,2.286462545E0
6.655449652E1,-1.019929886E0,9.210494041E0,3.327940404E-1
6.680602431E1,1.203565216E1,8.319850922E0,2.834734917E0
6.705779432E1,1.057997704E1,1.048660398E0,7.805097699E-1
6.730880141E1,1.747767180E-1,7.208941460E0,7.517793179E-1
6.756026625E1,1.078348446E1,1.378102493E1,6.727706790E-1
6.781218886E1,4.381389141E0,-6.895300865E0,-1.486799240E0
6.806325697E1,5.631162167E0,1.173877048E1,-2.358288765E0
6.831380629E1,1.172679996E1,1.690066910E1,4.541800499E0
6.856505751E1,2.068590164E0,-4.450820923E0,-3.512293816E0
6.881511854E1,1.733641434E1,1.943373489E1,2.252943754E0
6.906679701E1,9.179368973E0,1.304600525E1,6.165069580E0
6.931792616E1,3.392583847E0,-2.959233284E0,1.091755986E0
6.956957411E1,1.822226906E1,1.473391724E1,5.602431774E0
6.982070326E1,-6.655880809E-1,1.256955910E1,6.335057735E0
7.007262587E1,1.204283476E0,-1.278503656E0,9.888052940E0
7.032344984E1,1.386003399E1,6.167463779E0,2.401384354E0
7.057518934E1,-6.579266071E0,6.129156113E0,1.699883193E-1
7.082656264E1,1.007480049E1,8.995016098E0,2.389413357E0
7.107790541E1,1.355597019E1,2.226607651E-1,-7.398083210E-1
7.132933974E1,3.809175014E0,5.157110691E0,1.829170108E0
7.158080458E1,1.124077702E1,1.304839897E1,6.919242859E0
7.183172011E1,4.649539471E0,-5.267243862E0,-4.017470360E0
7.208342909E1,1.071165848E1,1.469082165E1,1.927332401E0
7.233379530E1,9.313444138E0,1.507149982E1,8.090007782E0
7.258568739E1,7.975085735E0,-1.300051570E0,-1.371877551E0
7.283690809E1,1.041477776E1,1.703474426E1,3.327940464E0
7.308761000E1,4.048594952E0,1.254322243E1,6.569689274E0
7.333828138E1,3.141192675E0,-2.391807556E0,6.344634295E-1
7.358950209E1,1.652717400E1,1.359667110E1,9.600749016E-1
7.384047865E1,-2.853888512E0,1.068532181E1,2.609679997E-1
7.409212660E1,6.797138691E0,5.037400246E0,3.038241863E0
7.434356093E1,1.424789429E1,3.203441858E0,3.380612850E0
7.459508681E1,-1.369483352E0,6.933608055E0,1.889025092E0
7.484548353E1,7.575253963E0,1.209071827E1,2.391807556E0
7.509737562E1,7.821856976E0,-3.694253206E0,-1.517923832E0
7.534856581E1,3.236960649E0,1.126232433E1,-5.657498837E0
7.560015272E1,1.139161205E1,1.822226906E1,6.725312710E0
7.585140394E1,4.592078686E0,-3.739742994E0,3.687070608E-1
7.610305189E1,1.755189323E1,1.939542770E1,5.329493046E0
7.635448622E1,8.858546257E0,1.674744034E1,8.688557625E0
7.660592054E1,6.560112476E0,-1.912967205E0,-1.199495077E0
7.685720228E1,1.719994545E1,1.590947056E1,4.766855717E0
7.710891127E1,-1.472434044E0,1.154723454E1,2.607285738E0
7.735964369E1,2.882618904E0,3.043030262E0,1.223437071E0
7.761062025E1,7.682993412E0,4.972756863E0,-3.268085241E0
7.786205458E1,-1.321599364E0,7.893682957E0,-7.661445439E-2
7.811351942E1,8.473079681E0,1.125753593E1,4.750096321E0
7.836492323E1,8.362946510E0,-3.117250681E0,1.460463107E-1
7.861495375E1,2.226607651E-1,8.568847656E0,1.058237195E0
7.886638808E1,1.230859089E1,1.927811241E1,9.083600998E0
7.911760878E1,4.189853191E0,-5.681440830E0,-1.328781962E0
7.936934828E1,1.504755783E1,1.905545044E1,1.414973259E0
7.962038588E1,6.332663536E0,1.434605694E1,7.048529625E0
7.987096571E1,4.790797710E0,-1.905784607E0,1.819593310E-1
8.012212538E1,1.339795303E1,1.836831474E1,5.602431774E0
8.037395643E1,3.785232782E0,1.286165142E1,5.796362400E0
8.062532972E1,3.782838583E0,5.937620401E-1,-7.254431248E-1
8.087587904E1,5.355829239E0,5.281609058E0,-4.398148537E0
8.112719130E1,-7.165845871E0,7.252037048E0,-4.295197964E0
8.137786268E1,1.796608925E1,1.355597019E1,5.288791656E0
8.162786268E1,9.473855972E0,-3.658340216E0,-9.600749016E-1
8.187877821E1,1.527500629E0,8.628703117E0,1.857900500E0
8.212923598E1,1.707065773E1,1.906023979E1,7.374141216E0
8.238079237E1,8.355764151E-1,-6.373364925E0,-3.476380825E0
8.263176893E1,1.224394703E1,1.467166805E1,3.112462163E-2
8.288332533E1,9.294290543E0,1.521515179E1,5.985504150E0
8.313454603E1,3.342305660E0,-3.375824451E0,-2.001552582E0
8.338545327E1,2.412876511E1,2.315911293E1,-3.244143248E0
8.363627724E1,2.521094322E0,1.191833591E1,3.275267839E0
8.388795571E1,2.114080191E0,7.613561153E-1,1.726219416E0
8.413945107E1,8.537723541E0,8.485051155E0,-4.903325081E0
8.439048867E1,-3.141192675E0,8.377311707E0,-2.420537949E0
8.464235024E1,1.434845066E1,9.900024414E0,1.702277422E0
8.489341836E1,1.014902115E1,-2.085349798E0,-2.394201607E-2
8.514341836E1,-4.548983276E-2,7.747636795E0,3.210624456E0
8.539442544E1,7.168240070E0,1.198058510E1,4.268861771E0
8.564585976E1,3.438073635E0,-6.143521786E0,-8.930372596E-1
8.589717202E1,5.049371243E0,1.187284660E1,-2.250549555E0
8.614894204E1,1.296220779E1,1.698925591E1,5.051765442E0
8.640055947E1,2.092532396E0,-4.340687752E0,-1.733402014E0
8.665168862E1,1.635958099E1,2.078885269E1,3.691859007E0
8.690226845E1,6.282385349E0,1.410184765E1,5.748478413E0
8.715358071E1,2.181117773E0,-1.012747288E0,2.118868589E0
8.740367226E1,1.382651520E1,1.326387787E1,-3.038241863E0
8.765544228E1,-3.268085241E0,1.023760605E1,5.602431893E-1
8.790669350E1,8.257601738E0,4.498704910E0,2.008735180E0
8.815821938E1,9.361329079E0,3.064578176E-1,-1.115697980E0
8.840925698E1,1.759738207E0,7.228095055E0,4.070142746E0
8.866008095E1,9.837775230E0,1.102769279E1,-9.313444495E-1
8.891139321E1,4.383783340E0,-6.361393929E0,-5.937620401E-1
8.916261391E1,1.752555609E0,7.831433773E0,1.058237195E0
8.941410927E1,1.401805115E1,1.825099945E1,5.485116005E0
8.966459755E1,2.674323320E0,-5.102043629E0,5.746084079E-2
8.991648964E1,1.612973595E1,2.088701630E1,2.815581083E0
9.016714168E1,5.465962410E0,1.104205799E1,3.713406801E0
9.041814876E1,5.137956619E0,-1.295263171E0,3.830722570E-1
9.066952205E1,1.447534370E1,1.409466553E1,3.756502390E0
9.091997981E1,-3.423708379E-1,1.314656162E1,7.632715225E0
9.116997981E1,7.429207802E0,-7.589619160E-1,8.619126081E-1
9.142126155E1,7.364564419E0,5.147533417E0,-3.608062029E0
9.167217708E1,-3.995922565E0,5.585672379E0,1.649604917E0
9.192327571E1,1.339795303E1,1.186326981E1,-2.576161146E0
9.217422176E1,7.692570210E0,-4.458003521E0,-2.954444885E0
9.242568660E1,3.581725836E0,8.532935143E0,1.786074519E0
9.267669368E1,1.684081459E1,1.997243118E1,5.978321552E0
9.292693782E1,3.184288263E0,-4.199429989E0,-1.872265697E0
9.317794490E1,8.197746277E0,1.596693134E1,5.571307182E0
9.342797542E1,4.419696331E0,1.098938560E1,8.360552788E0
9.367959285E1,4.070142746E0,-1.819593310E-1,1.295263171E0
9.392989802E1,1.817199135E1,1.944570541E1,9.543288231E0
9.418142390E1,-6.751648784E-1,1.017535686E1,6.519411087E0
9.443182063E1,3.936067581E0,2.082955360E0,1.206677675E0
9.468356014E1,6.244078159E0,1.122641182E1,-2.662352324E0
9.493462825E1,-6.081272125E0,6.873753071E0,7.422025204E-1
9.518554378E1,6.555324078E0,7.965508938E0,9.363722801E0
9.543733628E1,1.011789608E1,2.537853718E-1,3.663128614E-1
9.568846544E1,-6.919242740E-1,7.259219646E0,4.994304657E0
9.593941148E1,1.441309452E1,1.431972027E1,2.140416384E0
9.618953355E1,4.204218388E0,-6.256049156E0,-4.704606533E0
9.644124254E1,3.507505417E0,1.013704967E1,1.668758631E0
9.669246324E1,1.351047993E1,1.880166626E1,1.023281765E1
9.694386705E1,3.047818661E0,-3.960009575E0,-2.525882721E0
9.719554551E1,1.527500725E1,1.704911041E1,7.376535416E0
9.744691881E1,5.109226227E0,9.651026726E0,5.039794445E0
9.769804796E1,2.099714994E0,-2.135627985E0,1.055842996E0
9.794963487E1,2.316629601E1,1.295023727E1,8.394071579E0
9.820024522E1,-5.128379822E0,9.306262016E0,3.536235809E0
9.845122178E1,7.240066051E0,2.396595955E0,2.999934673E0
9.870256456E1,8.173804283E0,1.709460020E0,-3.797203779E0
9.895402940E1,-2.442085743E0,7.000645638E0,4.979939461E0
9.920482286E1,7.017405033E0,9.282320023E0,2.035071403E-1
9.945549424E1,5.987898350E0,-5.679046631E0,-9.888052940E-1
9.970637925E1,1.750161409E0,8.540117264E0,5.061342239E0
9.995711168E1,1.170285797E1,1.829409599E1,6.308721542E0
1.002080272E2,3.251325846E0,-4.400542736E0,-1.333570361E0
1.004590071E2,1.363018990E1,1.751358604E1,5.975927353E0
1.007104109E2,1.078587818E1,1.635479164E1,5.793968201E0
1.009617536E2,3.186682463E0,-3.818751812E0,-3.112462163E-2
1.012130659E2,1.417127991E1,1.442745972E1,4.601655483E0
1.014644697E2,6.339846134E0,1.588792229E1,7.953537941E0
1.017155989E2,2.887407303E0,2.059013397E-1,7.302315235E-1
1.019668501E2,1.097262669E1,1.063264942E1,-3.337517262E0
1.022179792E2,-5.334281445E0,6.885724068E0,-6.464344859E-1
1.024693525E2,1.156399441E1,9.445125580E0,4.613626480E0
1.027206648E2,1.603157425E1,5.008669853E0,3.497928619E0
1.029715498E2,2.643198729E0,4.723760128E0,3.684676409E0
1.032225569E2,8.437167168E0,1.549287891E1,4.599261284E0
1.034737471E2,2.693476915E0,-7.642292023E0,-3.344699860E0
1.037249678E2,6.938396454E0,1.359906578E1,-1.666364431E0
1.039757002E2,1.050336266E1,1.533725643E1,8.010998726E0
1.042267988E2,4.680664539E0,-2.834734917E0,-7.613561153E-1
1.044772261E2,1.017535686E1,1.471955204E1,5.341464043E0
1.047281416E2,5.331887245E0,1.380975533E1,9.406818390E0
1.049795759E2,3.047818661E0,-2.396595955E0,1.204283476E0
1.052307356E2,1.474828243E1,1.280419064E1,2.935291290E0
1.054816816E2,-4.955997467E0,5.583278179E0,-1.149216771E0
1.057324140E2,8.204929352E0,7.096413612E0,3.667917013E0
1.059838789E2,1.485841560E1,2.384624958E0,1.355118155E0
1.062351911E2,1.046266198E0,7.046135426E0,2.791639090E0
1.064859846E2,8.554482460E0,1.339555836E1,6.141127586E0
1.067367781E2,2.870647907E0,-4.869806290E0,-2.444479942E0
1.069880293E2,1.035971069E1,1.471715832E1,2.370259762E0
1.072387922E2,8.803479195E0,1.535162163E1,6.416460514E0
1.074888227E2,1.802833915E0,-5.872976780E0,-3.624821424E0
1.077399214E2,1.585200977E1,1.736275101E1,5.542576790E0
1.079911116E2,1.073320580E1,1.438436413E1,6.909666061E0
1.082419660E2,3.588908434E0,-3.078943491E0,1.750161409E0
1.084930647E2,1.814565468E1,1.694137192E1,8.147468567E0
1.087441938E2,-2.743755102E0,7.134721279E0,1.221042871E0
1.089950178E2,4.797980309E0,2.691082716E0,1.084573388E0
1.092463301E2,8.564059258E0,-6.488286853E-1,-3.483563423E0
1.094975508E2,-1.675941229E0,9.483432770E0,3.687070608E-1
1.097487715E2,8.777143478E0,5.554547787E0,5.267243862E0
1.099990461E2,1.470997524E1,-2.394201607E-2,1.149216816E-1
1.102499922E2,1.582567334E0,8.899248123E0,1.869871497E0
1.105012129E2,1.580173111E1,1.456871700E1,7.783549786E0
1.107520674E2,3.428496838E0,-5.446808815E0,5.793967843E-1
1.110032881E2,8.192957878E0,1.308191776E1,-1.149216771E0
1.112542036E2,9.866505623E0,1.538753414E1,8.485051155E0
1.115053327E2,2.820369720E0,-4.110844135E0,-2.147598982E0
1.117562483E2,1.826296997E1,1.769315147E1,5.377377033E0
1.120074995E2,4.699818134E0,1.414254951E1,8.315062523E0
1.122587202E2,3.177105665E0,-5.674257874E-1,1.240196466E0
1.125096052E2,2.079603577E1,1.134133339E1,2.999934673E0
1.127605818E2,-9.504981041E-1,1.063264942E1,9.600749016E0
1.130113752E2,6.928819656E0,1.867477298E0,3.050212860E0
1.132624128E2,1.010353088E1,2.188300371E0,-2.750937700E0
1.135136946E2,-1.843535304E0,7.259219646E0,2.370259762E0
1.137648848E2,7.110779285E0,9.902418137E0,1.709460020E0
1.140158918E2,8.836998940E0,-3.684676409E0,5.817909837E-1
1.142675703E2,3.945644379E0,9.042900085E0,2.382230759E0
1.145184553E2,1.119289303E1,1.421437550E1,8.020575523E0
1.147696760E2,3.337517262E0,-7.441178799E0,-4.067748547E0
1.150207441E2,5.183446884E0,1.296460247E1,7.038952708E-1
1.152719038E2,1.178904915E1,1.735317421E1,8.473079681E0
1.155227888E2,4.276044369E0,-2.090138197E0,-8.236053586E-1
1.157742536E2,1.564610767E1,1.687672806E1,2.413355350E0
1.160257490E2,9.294290543E0,1.577539539E1,8.518569946E0
1.162772139E2,4.180276394E0,-2.272097349E0,1.450886250E0
1.165283735E2,2.226607513E1,1.866040802E1,4.845864296E0
1.167794416E2,-6.287173748E0,6.538564682E0,2.135627985E0
1.170307539E2,4.663905144E0,2.149993181E0,2.920926213E-1
1.172817915E2,8.063671112E0,3.727771997E0,-2.511517525E0
1.175329512E2,-2.585737944E0,8.303091049E0,2.370259613E-1
1.177840498E2,5.272032261E0,7.845798969E0,3.071760893E0
1.180347517E2,1.122880554E1,-3.023876667E0,1.280897856E0
1.182858198E2,1.860294700E0,9.708487511E0,1.357512355E0
1.185360029E2,7.783549786E0,1.364934349E1,1.021605873E1
1.187868574E2,2.382230759E0,-5.339069843E0,-2.760514498E0
1.190374372E2,5.889736176E0,1.195664310E1,5.717353821E0
1.192880781E2,3.598485231E0,1.398932076E1,9.411606789E0
1.195396040E2,1.247379065E0,-5.152322292E0,4.357447028E-1
1.197902143E2,2.333149529E1,1.787271500E1,8.228871346E0
1.200416487E2,7.489062786E0,1.383369732E1,6.876147270E0
1.202926863E2,3.651157618E0,-3.770867586E0,1.264138460E0
1.205428999E2,1.905545044E1,1.263180828E1,3.830722809E0
1.207942732E2,-9.576806426E-2,1.046745014E1,5.329493046E0
1.210444563E2,6.155492783E0,1.297657371E0,3.641580820E0
1.212944563E2,1.256716442E1,4.256890774E0,-2.111685991E0
1.215455854E2,-2.559401512E0,7.536946774E0,-1.505952835E0
1.217962568E2,1.080982113E1,7.606379032E0,1.051054597E0
1.220467146E2,1.224394703E1,-4.213795066E-1,1.364694953E0
1.222982405E2,2.245761156E0,8.813055992E0,3.500322819E0
1.225497663E2,5.779603004E0,1.128147888E1,5.607220173E0
1.228011396E2,5.691017628E0,-7.587224960E0,-1.807622313E0
1.230515669E2,6.818686485E0,1.173398209E1,-4.031835556E0
1.233031843E2,1.077869606E1,1.952231979E1,9.076418877E0
1.235547712E2,4.474762917E0,-4.232948780E0,-2.116474390E0
1.238056562E2,2.048718452E1,1.889982796E1,4.604049683E0
1.240568769E2,1.033337498E1,1.360385418E1,6.754043102E0
1.243073652E2,4.230554581E0,-2.952050686E0,4.955997467E-1
1.245588301E2,1.973540497E1,1.416170311E1,1.735796213E0
1.248102949E2,-3.019088268E0,8.772355080E0,7.326257229E-1
1.250622480E2,7.477091789E0,3.845088005E0,5.363011956E-1
1.253134687E2,1.538274574E1,4.994304657E0,-1.151610970E0
1.255653608E2,-1.790862918E0,7.223306656E0,4.058171749E0
1.258164900E2,5.971138954E0,9.933543205E0,3.344699860E0
1.260669172E2,1.008198357E1,-5.169081688E0,-4.692635238E-1
1.263172529E2,3.141192675E0,8.834604263E0,5.386953950E-1
1.265673750E2,1.556949329E1,1.539950562E1,6.093243122E0
1.268175581E2,2.825158119E0,-4.821922302E0,-9.241618514E-1
1.270678022E2,1.105163479E1,1.719276237E1,6.148310184E0
1.273179548E2,1.728853035E1,1.933078384E1,6.033388138E0
1.275680464E2,2.343923569E0,-5.288791656E0,1.754949808E0
1.278182600E2,2.046324158E1,1.846408272E1,2.092532396E0
1.280685347E2,7.366958618E0,1.468124485E1,6.394912720E0
1.283187178E2,2.456450939E0,-1.987187386E0,2.011129409E-1
1.285690229E2,2.294602966E1,9.428366661E0,1.532289028E0
1.288192060E2,-4.347870350E0,7.352593422E0,-1.742978811E0
1.290694197E2,1.268208599E1,7.354987621E0,1.244984865E-1
1.293194197E2,1.268448067E1,-2.121262789E0,3.950432837E-1
1.295695723E2,5.683835030E0,1.172919369E1,4.414907932E0
1.298214033E2,1.071644688E1,9.188945770E0,4.089296341E0
1.300732649E2,2.916137695E0,-1.002212811E1,-1.333570361E0
1.303235158E2,6.143521786E0,1.356075859E1,-1.501164436E0
1.305754995E2,1.689588165E1,1.932839012E1,1.006282997E1
1.308255910E2,2.439691544E0,-6.457161903E0,-2.195482969E0
1.310775442E2,2.021903419E1,1.980004883E1,-1.055842996E0
1.313277273E2,1.124795914E1,1.531810284E1,7.302315235E0
1.315778798E2,8.882488012E-1,-4.790797710E0,1.455674648E0
1.318281545E2,2.065717316E1,1.389834118E1,-1.637633920E0
1.320783986E2,-2.803610086E0,1.190636539E1,2.736572504E0
1.323287038E2,9.928754807E0,1.934514999E0,-8.738836050E-1
1.325789174E2,5.691017628E0,-4.764461517E-1,-4.764461517E0
1.328290395E2,1.201889277E0,9.483432770E0,-8.714894056E-1
1.330791311E2,1.074278259E1,8.722076416E0,1.297657371E0
1.333292531E2,6.160281181E0,-8.195352554E0,-1.211466074E0
1.335793142E2,1.958456993E0,7.445967197E0,-1.843535304E-1
1.338294362E2,1.772666931E1,1.418564510E1,1.080263805E1
1.340798330E2,1.527500629E0,-7.055712223E0,-2.899378300E0
1.343316640E2,1.180102062E1,1.312261963E1,-2.449268341E0
1.345835256E2,1.128387260E1,1.410903072E1,5.279214859E0
1.348338613E2,1.860294700E0,-4.800374508E0,1.012747288E0
1.350839834E2,2.613031769E1,1.729571342E1,6.993463039E0
1.353342885E2,1.367089152E0,1.214578533E1,6.545747280E0
1.355844106E2,1.881842494E0,-2.360682964E0,4.740519226E-1
1.358362722E2,1.758062363E1,7.623138428E0,-1.089361787E0
1.360865468E2,-4.778826714E0,1.024478912E1,-1.345541358E0
1.363366994E2,1.034534550E1,3.303998232E0,2.193088770E0
1.365869130E2,1.289038181E1,2.322375625E-1,1.994369984E0
1.368371267E2,-2.688688517E0,7.584830761E0,3.141192675E0
1.370874929E2,1.083855152E1,1.476743603E1,1.733402014E0
1.373377675E2,1.011310768E1,-6.045359135E0,-1.714248419E0
1.375878896E2,4.122815132E0,1.063264942E1,9.624691010E-1
1.378378896E2,2.154542160E1,2.369062614E1,5.267243862E0
1.380879506E2,1.817199111E0,-6.749254704E0,-1.671152830E0
1.383381032E2,1.287362289E1,1.506431675E1,-1.364694983E-1
1.385881948E2,1.030703831E1,1.675462341E1,3.634398222E0
1.388384084E2,2.092532396E0,-5.552153587E0,-2.832340717E0
1.390884694E2,2.357091522E1,1.838268089E1,-3.974374771E0
1.393388967E2,1.738190413E0,1.099656868E1,1.267011547E1
1.395892934E2,3.021482468E0,-3.689464808E0,-5.363011956E-1
1.398394460E2,2.372653961E1,6.718130112E0,7.771578789E0
1.400913076E2,-7.841010571E0,7.223306656E0,2.341529369E0
1.403415517E2,1.523430538E1,3.785232782E0,2.576161146E0
1.405919179E2,1.031900978E1,-1.838746905E0,2.896983922E-1
1.408421316E2,-3.421314240E0,9.236829758E0,-2.676717520E0
1.410922841E2,1.649365616E1,1.401565647E1,1.513135433E0
1.413424062E2,4.809951305E0,-9.181763649E0,-4.709394932E0
1.415927114E2,2.846705914E0,1.071884060E1,3.287238836E0
1.418431386E2,2.137064362E1,1.828930664E1,1.402762794E1
1.420933828E2,2.035071373E0,-7.304709435E0,-4.553771496E0
1.423453359E2,1.495657825E1,1.188481712E1,4.855441093E0
1.425955495E2,8.748413086E0,1.234450436E1,9.581595421E0
1.428457021E2,2.109291792E0,-2.896984100E0,1.723825186E-1
1.430975637E2,2.533783722E1,1.036928749E1,1.762611198E1
1.433478078E2,4.395754337E0,1.461899567E1,1.009874249E1
1.435979604E2,4.879383087E0,-2.796427488E0,2.813186884E0
1.438479604E2,6.830657482E0,-3.349488258E0,-6.634333134E0
1.440983571E2,-3.368641853E0,1.036689377E1,3.871424198E0
1.443484487E2,1.990539360E1,6.253654957E0,5.942408562E0
1.445984792E2,1.158314800E1,-3.605667830E0,2.719813108E0
1.448487234E2,5.276820660E0,1.087925243E1,3.213018656E0
1.450989065E2,1.661815453E1,1.524867058E1,8.204929352E0
1.453490896E2,3.222595453E0,-6.581660271E0,-7.015010715E-1
1.455994558E2,5.935225964E0,1.318965721E1,1.340992355E1
1.458514089E2,2.928108692E0,1.465251446E1,5.925649166E0
1.461016530E2,2.410961151E0,-1.862688899E0,-1.790862918E0
1.463530847E2,3.548207092E1,2.030043602E1,2.219664383E1
1.466044275E2,7.012616634E0,1.618480301E1,9.991003990E0
1.468557093E2,4.841075897E0,-3.136404276E0,-2.825157940E-1
1.471061365E2,2.190455055E1,8.834604263E0,-8.619125932E-2
1.473566248E2,-1.575384736E0,9.174580574E0,-6.344634295E-1
1.476068384E2,1.478180122E1,5.901707172E0,2.899378300E0
1.478581812E2,1.193509579E1,-2.214636564E0,4.309563041E-1
1.481083643E2,1.197100878E0,7.316680431E0,1.881842494E0
1.483589136E2,1.016578007E1,9.581595421E0,2.717418909E0
1.486094019E2,1.051054597E0,-8.724471092E0,-1.862688899E0
1.488601953E2,1.006761837E1,9.212887764E0,-6.871358752E-1
1.491121179E2,1.556949329E1,1.594298935E1,6.655880928E0
1.493624536E2,1.082179189E0,-6.502651691E0,-1.798045516E0
1.496143762E2,1.657505798E1,1.210747814E1,-1.896207690E0
1.498644068E2,1.164060879E1,1.387918758E1,7.510610580E0
1.501147119E2,2.561795712E0,-3.464409828E0,1.015141487E0
1.503649561E2,2.291729927E1,9.114726067E0,4.465186119E0
1.506152002E2,-1.788468719E0,1.070926380E1,9.217676520E-1
1.508652307E2,1.020169353E1,1.994369984E0,9.792284966E-1
1.511152918E2,9.519346237E0,-9.552865028E-1,-1.441309452E0
1.513671618E2,6.069301128E0,1.078108978E1,1.096544385E0
1.516172839E2,1.454956341E1,1.163821411E1,9.313444495E-1
1.518676196E2,2.082955539E-1,-9.330204010E0,-5.564124584E0
1.521178027E2,7.611167431E0,1.068771648E1,7.733271718E-1
1.523678943E2,9.725247383E0,1.409705925E1,6.497863293E0
1.526179553E2,1.369483352E0,-5.497087002E0,-8.690952063E-1
1.528680163E2,2.871126747E1,1.849999619E1,6.186617374E0
1.531180774E2,8.501810074E0,1.730529022E1,1.384327412E1
1.533683215E2,9.385270476E-1,-3.380612850E0,1.640028119E0
1.536184131E2,2.018312073E1,6.995857239E0,-1.091755986E0
1.538686572E2,-3.088520288E0,7.685387611E0,6.224924326E-1
1.541187182E2,1.774103546E1,9.294290543E0,8.516175270E0
1.543706408E2,1.216015053E1,-2.475604534E0,2.135627985E0
1.546207934E2,2.784456491E0,1.105402946E1,9.193734527E-1
1.548710376E2,1.012268448E1,1.017535686E1,5.779603004E0
1.551213427E2,3.689464808E0,-8.892065048E0,-4.517858505E0
1.553714648E2,5.025429249E0,9.315838814E0,5.810727596E0
1.556215564E2,1.472434044E1,1.671870995E1,1.036928749E1
1.558718310E2,2.748543501E0,-6.217741966E0,-7.062895298E-1
1.561219531E2,9.588777542E0,1.559104156E1,4.034229755E0
1.563722583E2,7.860164165E0,1.486081028E1,2.633621931E0
1.566225940E2,2.123656988E0,-3.835511208E0,1.256955862E0
1.568728686E2,3.402400208E1,1.937866783E1,1.041717148E1
1.571231433E2,4.050989151E0,1.651999092E1,1.105163479E1
1.573733569E2,4.601655483E0,-3.742137194E0,1.486799240E0
1.576233874E2,2.129642487E1,8.142680168E0,4.029441357E0
1.578734179E2,-3.866635799E0,6.967126846E0,7.012616634E0
1.581237536E2,1.136767006E1,5.204994678E0,8.880094528E0
1.583739673E2,8.542511940E0,-2.853888512E0,2.384624958E0
1.586243335E2,-3.655946016E0,8.056488991E0,4.091690540E0
1.588744555E2,1.439154625E1,8.664615631E0,8.851364136E0
1.591248217E2,2.832340717E0,-7.438784599E0,-4.764461517E-1
1.593750048E2,7.477091789E0,8.626308441E0,1.872265697E0
1.596252490E2,1.028788471E1,1.454716969E1,1.105642319E1
1.598754321E2,2.537853718E-1,-7.175422668E0,-1.259350061E0
1.601255236E2,2.193328094E1,1.298375607E1,8.283938169E-1
1.603755236E2,1.007240677E1,1.435323906E1,8.722076416E0
1.606256762E2,5.793967843E-1,-4.333505154E0,7.182605099E-3
1.608758580E2,2.137543297E1,7.184999466E0,4.110844135E0
1.611259191E2,-2.645592928E0,1.331894398E1,5.240907669E0
1.613759496E2,1.037168217E1,1.891419291E-1,-1.185129881E0
1.616260411E2,1.280658531E1,-9.241618514E-1,-2.437297344E0
1.618764684E2,3.943250179E0,1.095586681E1,-5.315127969E-1
1.621266515E2,9.222464561E0,7.754819393E0,4.455609322E0
1.623783910E2,4.199429989E0,-9.684545517E0,-3.552995205E0
1.626297643E2,5.233725071E0,9.813833237E0,1.819593310E0
1.628809239E2,1.845450592E1,1.456632328E1,1.020887566E1
1.631319921E2,2.042253971E0,-7.354987621E0,5.243301988E-1
1.633829381E2,1.181299114E1,1.355597019E1,-2.114080191E0
1.636342504E2,1.589271069E1,1.766920853E1,6.658275127E0
1.638851659E2,1.819593310E0,-5.995080948E0,-1.268926859E0
1.641357152E2,2.640086174E1,1.638112831E1,5.841852427E-1
1.643871800E2,8.149862289E0,1.538274574E1,2.794033289E0
1.646382787E2,2.961627483E0,-2.092532396E0,1.503558636E0
1.648895909E2,2.138979721E1,6.181828976E0,-1.436520964E-1
1.651413610E2,-4.611232281E0,9.272743225E0,3.265691042E0
1.653926122E2,1.563413715E1,5.592854977E0,1.977610588E0
1.656439549E2,8.360552788E0,-6.409277916E0,8.092401624E-1
1.658945958E2,5.046977043E0,1.111627865E1,2.509123325E0
1.661458165E2,1.667082596E1,9.605537415E0,1.704671621E0
1.663965184E2,4.046200752E0,-9.986215591E0,-7.481880188E0
1.666476171E2,1.044350815E1,1.175313568E1,2.310404539E0
1.668995397E2,2.388694954E1,2.188539696E1,9.636661530E0
1.671506383E2,3.172317266E0,-6.873753071E0,-1.537077546E0
1.674022862E2,2.196919441E1,1.501643276E1,-2.343923569E0
1.676539952E2,1.151371574E1,1.628775406E1,1.029506698E-1
1.679054296E2,-9.217676520E-1,-6.651092529E0,1.881842494E0
1.681562535E2,3.016215324E1,1.540908241E1,7.647080421E0
1.684080541E2,-2.394201700E-3,1.106599998E1,7.532158375E0
1.686591222E2,6.291962147E0,-3.040636182E-1,-1.235408068E0
1.689104039E2,1.083855152E1,-2.765302896E0,-4.568136692E0
1.691616857E2,3.019088268E0,8.750806808E0,-7.230489254E-1
1.694127538E2,1.386961079E1,5.451597214E0,4.429273129E0
1.696636998E2,6.222530365E0,-7.429207802E0,-7.805097699E-1
1.699146764E2,3.660734415E0,7.292738438E0,2.226607651E-1
1.701660802E2,2.218946075E1,1.890222168E1,1.224155331E1
1.704174230E2,3.234566450E0,-7.187393665E0,-2.001552582E0
1.706687963E2,1.983356667E1,1.883279037E1,1.053448796E0
1.709202916E2,1.122401714E1,1.590707588E1,5.916072369E0
1.711715123E2,8.762778044E-1,-4.340687752E0,1.764526606E0
1.714227330E2,1.952950287E1,1.403959846E1,2.185906172E0
1.716740453E2,3.325546265E0,1.178186703E1,3.763684988E0
1.719248693E2,3.493140221E0,-5.865794420E-1,8.164227605E-1
1.721752355E2,1.460941887E1,4.173093796E0,-3.914519787E0
1.724262120E2,-3.689464808E0,7.632715225E0,8.523358107E-1
1.726775243E2,1.212184334E1,6.035782337E0,3.600879431E0
1.729280736E2,1.156159973E1,-4.979939461E0,4.165911078E-1
1.731789891E2,9.337386489E-1,6.787561893E0,3.227383852E0
1.734299352E2,1.363018990E1,1.277306652E1,6.258443356E0
1.736811864E2,1.912967205E0,-7.098807812E0,-1.110909581E0
1.739324071E2,1.157596493E1,1.173877048E1,9.816226959E-1
1.741833531E2,9.696516991E0,1.322796440E1,4.726154327E0
1.744346044E2,-2.777273953E-1,-3.643975019E0,4.070143029E-2
1.746862828E2,3.168247032E1,1.394622517E1,4.417302132E0
1.749376866E2,8.997409821E0,1.811931801E1,6.665457726E0
1.751889073E2,3.694253206E0,-2.861071110E0,2.990357876E0
1.754396703E2,6.732495308E0,-2.987963676E0,-5.686229229E0
1.756907994E2,-5.042188644E0,1.116895103E1,5.679046631E0
1.759422948E2,1.939542770E1,5.267243862E0,-1.120486379E0
1.761934850E2,1.213142014E1,-5.980715752E0,2.944868207E-1
1.764447057E2,2.887407303E0,1.022563553E1,-6.605602264E0
1.766956517E2,1.497812557E1,1.132457447E1,-8.475474119E-1
1.769468114E2,2.736572504E0,-1.155681133E1,-3.131615877E0
1.771977880E2,1.522712231E0,8.968679428E0,-4.548983276E-1
1.774491002E2,1.541387081E1,1.681926727E1,3.507505417E0
1.777005956E2,4.788403511E0,-3.210624456E0,-8.283938169E-1
1.779518773E2,1.876814651E1,1.044111347E1,-2.753331959E-1
1.782032811E2,8.815450668E0,1.446337223E1,3.157952070E0
1.784546239E2,-6.224924326E-2,-5.841852188E0,2.662352324E0
1.787049291E2,3.721546936E1,1.797087860E1,9.588777542E0
1.789563329E2,-4.807557106E0,9.528923035E0,8.523358345E0
1.792068212E2,5.743690014E0,-7.134721279E-1,6.303933144E0
1.794581334E2,7.414842606E0,-5.185841084E0,-8.535328865E0
1.797088048E2,-9.768342972E-1,8.690952301E0,4.266467571E0
1.799605443E2,1.863407135E1,8.805873871E0,4.537012100E0
1.802121923E2,4.879383087E0,-1.140837097E1,-3.519476354E-1
1.804633519E2,4.663905144E0,7.682993412E0,9.097966552E-2
1.807144200E2,2.120065689E1,1.567723274E1,9.746794701E0
1.809649083E2,1.742978811E0,-8.901641846E0,-1.551442742E0
1.812159459E2,9.244012833E0,1.383609200E1,-2.248155355E0
1.814664037E2,1.670913315E1,1.844253540E1,5.480327606E0
1.817179906E2,9.911994934E-1,-4.953603268E0,-2.753331959E-1
1.819682958E2,3.273352432E1,2.223734474E1,3.392583847E0
1.822197301E2,5.726930618E0,1.517923832E1,4.817133904E0
1.824711339E2,8.212111592E-1,-5.149928093E0,2.959233284E0
1.827229955E2,2.879745865E1,1.187045193E1,2.444479942E0
1.829740941E2,-7.003039837E0,7.060500622E0,3.275267839E0
1.832257421E2,1.231577396E1,3.632004023E0,4.012681961E0
1.834773900E2,1.174834728E1,-1.515529633E0,-1.989581585E0
1.837283360E2,-3.009511471E0,8.291120529E0,5.422866821E0
1.839783360E2,7.314286232E0,9.196128845E0,2.121262789E0
1.842294347E2,7.852981567E0,-7.809885979E0,-1.053448766E-1
1.844811437E2,3.725377798E0,1.027351952E1,1.290474772E0
1.847322728E2,2.541445160E1,2.188779259E1,1.129823780E1
1.849833714E2,6.631938815E-1,-1.022802925E1,-2.193088770E0
1.852344701E2,1.446816063E1,1.533725643E1,-1.819593310E-1
1.854853551E2,1.917037392E1,1.995567131E1,7.029376030E0
1.857371556E2,-6.129156351E-1,-8.118738174E0,2.154781520E-1
1.859890477E2,3.389231873E1,2.097320747E1,2.154781580E0
1.862399938E2,8.092401505E0,1.491587639E1,3.464409828E0
1.864901158E2,2.133233786E0,-5.209783077E0,8.930372596E-1
1.867410008E2,2.641043854E1,8.808267593E0,-2.566584110E0
1.869927098E2,-4.819528103E0,8.485051155E0,6.105214357E-1
1.872443578E2,1.070208168E1,2.901772499E0,7.110779285E-1
1.874944188E2,9.873687744E0,-6.335057735E0,5.410895944E-1
1.877460362E2,-7.086837292E-1,8.116343498E0,3.543418407E0
1.879970738E2,1.905305672E1,1.444421864E1,7.757213712E-1
1.882478673E2,1.733402014E0,-1.256237602E1,-2.760514498E0
1.884989354E2,9.138668060E0,1.266293240E1,2.262520552E0
1.887504613E2,2.119586754E1,2.162442970E1,8.015787125E0
1.890023534E2,7.254431248E-1,-6.332663536E0,1.120486379E0
1.892536046E2,2.583343697E1,2.028846550E1,-2.090138197E0
1.895049474E2,8.169015884E0,1.563653088E1,6.217741966E0
1.897561986E2,2.379836559E0,-5.171475887E0,8.619125932E-2
1.900074193E2,3.407427979E1,1.301009178E1,1.048181534E1
1.902581822E2,2.691082716E0,1.400607967E1,6.639121532E0
1.905091893E2,5.767632008E0,-2.080561161E0,3.287238836E0
1.907597081E2,6.667851925E0,-2.815581083E0,-5.355829239E0
1.910111119E2,-3.287238836E0,8.070854187E0,-2.023100376E0
1.912622716E2,1.443943024E1,1.125514221E1,1.879448295E0
1.915126988E2,1.182735634E1,-5.803544998E0,3.426102638E0
1.917640919E2,1.237802267E0,1.062067890E1,2.729389966E-1
1.920154652E2,2.239775658E1,2.631467056E1,6.303933144E0
1.922655568E2,1.905784607E0,-8.475474358E0,-9.720458984E-1
1.925167469E2,1.554794598E1,1.897644234E1,-2.652775526E0
1.927685170E2,1.217690945E1,1.709460068E1,7.048529625E0
1.930185170E2,2.449268341E0,-5.224148273E0,2.394201700E-3
1.932693104E2,2.684857750E1,1.825578880E1,9.090784073E0
1.935207753E2,2.741360903E0,1.319205093E1,2.743755102E0
1.937723011E2,2.094926596E0,-2.075772762E0,1.900996208E0
1.940223622E2,1.268208599E1,6.138733387E0,-5.540182590E0
1.942735524E2,-9.646238327E0,4.218583584E0,-1.941697598E0
1.945251393E2,1.520078659E1,1.048899746E1,3.746925592E0
1.947765126E2,1.034774017E1,-6.157886982E0,1.941697598E0
1.950269093E2,2.834734917E0,8.006210327E0,2.825158119E0
1.952781910E2,1.695334244E1,1.605551720E1,8.358158112E0
1.955292286E2,5.003881454E-1,-1.009395409E1,-8.403648138E-1
1.957796559E2,1.291911221E1,1.592622948E1,-5.276820660E0
1.960306935E2,8.564059258E0,1.186805820E1,1.050096893E1
1.962823109E2,6.512228847E-1,-7.357381821E0,-1.106121182E0
1.965341114E2,2.350866699E1,1.787032127E1,1.029506698E-1
1.967852406E2,6.442796707E0,1.210987186E1,5.564124584E0
1.970361561E2,1.039083481E0,-4.096478939E0,1.249773264E0
1.972871022E2,4.058411407E1,1.824621201E1,7.896077156E0
1.975388722E2,2.166752577E0,1.225352383E1,4.795586109E0
1.977899708E2,6.203376770E0,-7.278373241E-1,1.465251446E0
1.980401844E2,1.241154194E1,5.506663769E-2,-4.412513733E0
1.982917714E2,-3.438073635E0,6.232107162E0,1.333570361E0
1.985429921E2,1.563413715E1,1.067095661E1,5.149928093E0
1.987940602E2,5.892130375E0,-1.004128170E1,-5.075707436E-1
1.990455555E2,2.645592928E0,9.464279175E0,3.349488258E0
1.992960133E2,2.119586754E1,1.749921989E1,1.304361057E1
1.995475392E2,-4.548983276E-1,-1.026394272E1,-3.938461781E0
1.997988514E2,1.211705494E1,1.403002167E1,-5.482721925E-1
2.000507435E2,9.210494041E0,1.516966152E1,7.386112213E0
2.003015370E2,2.913743496E0,-4.692635536E0,-7.206547260E-1
2.005530018E2,2.880463982E1,1.678814316E1,2.039859772E0
2.008044972E2,3.349488258E0,1.275151825E1,4.630385876E0
2.010556569E2,2.738966703E0,-1.745373011E0,1.874659896E0
2.013059905E2,4.187458992E0,1.225831270E0,-4.730942726E0
2.015574248E2,-3.258508444E0,8.865729332E0,5.559336185E0
2.018088286E2,1.481771469E1,9.387664795E0,-6.584054828E-1
2.020598052E2,9.114726067E0,-5.082890034E0,-1.321599364E0
2.023112090E2,7.953537941E0,1.171243477E1,-2.758120298E0
2.025619414E2,2.081997871E1,2.280237770E1,1.114979744E1
2.028134062E2,8.523358107E-1,-1.123598862E1,-1.151610970E0
2.030646269E2,1.343865395E1,1.951034927E1,-2.231395960E0
2.033164580E2,1.190397072E1,1.611776543E1,3.663128614E-1
2.035675261E2,3.287238836E0,-5.303156853E0,-1.728613615E0
2.038182280E2,2.977189827E1,2.090856361E1,1.432690334E1
2.040695403E2,3.162740469E0,1.446576691E1,3.050212860E0
2.043218291E2,3.560178041E0,-1.946485996E0,1.154005170E0
2.045734770E2,8.700529099E0,1.462857246E0,-7.046135426E0
2.048246672E2,-3.969586372E0,8.935160637E0,2.992752075E0
2.050765898E2,1.304121685E1,6.100425720E0,1.649604917E0
2.053275053E2,1.349372101E1,-3.713406801E0,6.919242740E-1
2.055792448E2,9.038111687E0,1.301966858E1,6.200982571E0
2.058299162E2,1.193988419E1,1.288080502E1,7.204153061E0
2.060811980E2,3.122039080E0,-8.231265068E0,-1.333570361E0
2.063318083E2,2.444479942E0,9.366117477E0,8.070854187E0
2.065835173E2,8.540117264E0,1.620156288E1,9.708487511E0
2.068351653E2,2.583343744E0,-3.993528366E0,5.961562395E-1
2.070872405E2,1.713290787E1,1.354639339E1,2.104503393E0
2.073382781E2,3.452438831E0,1.112106705E1,1.035252857E1
2.075894988E2,1.455674648E0,-2.794033289E0,4.572925270E-1
2.078407500E2,2.358767509E1,6.636727333E0,1.436521053E1
2.080916655E2,-4.309562966E-2,1.571075153E1,4.137180328E0
2.083431303E2,4.441244125E0,-4.553771496E0,3.634398222E0
2.085942900E2,7.977479935E0,-4.534617901E0,-1.003888798E1
2.088452111E2,-3.921702385E0,6.521805286E0,2.636016130E0
2.090963708E2,2.039141655E1,5.339069843E0,3.648763418E0
2.093473473E2,6.268020153E0,-9.643844604E0,2.473210335E0
2.095987816E2,3.715801001E0,7.824251175E0,3.643975019E0
2.098500634E2,1.909615326E1,1.324232960E1,1.216972733E1
2.101011620E2,8.571242094E-1,-8.621520042E0,-1.446097851E0
2.103522912E2,1.556470490E1,1.380975533E1,-4.556165695E0
2.106031762E2,1.726937675E1,1.857661057E1,5.750872612E0
2.108547631E2,2.317587137E0,-4.079719543E0,-5.099649429E-1
2.111062890E2,2.581428337E1,1.224155331E1,8.920795441E0
2.113567162E2,2.925714493E0,1.424550056E1,3.160346270E0
2.116084557E2,4.912901878E0,-3.502717018E0,1.161187768E0
2.118597374E2,1.531810284E1,5.070919037E0,-4.079719543E0
2.121104699E2,-6.157886982E0,6.021417141E0,-3.088520169E-1
2.123616295E2,1.434845066E1,8.042123795E0,2.568978310E0
2.126126061E2,9.457097054E0,-7.752425194E0,6.153098345E-1
2.128635827E2,3.833117008E0,8.700529099E0,2.513911724E0
2.131152611E2,1.921586227E1,1.436042213E1,1.136288166E1
2.133664513E2,2.616862535E0,-7.795520782E0,-2.554613113E0
2.136181298E2,1.349132633E1,1.740584564E1,-2.652775526E0
2.138695031E2,1.188481712E1,1.920628548E1,5.339069843E0
2.141209679E2,2.329558372E0,-4.309563160E0,-1.295263171E0
2.143727379E2,2.992512703E1,2.364513588E1,6.131550789E0
2.146239892E2,2.861071110E0,1.091277122E1,6.325480938E0
2.148742638E2,3.682282209E0,-2.308010340E0,6.943184882E-2
2.151254540E2,1.545457172E1,2.355894566E0,-2.698265314E0
2.153757287E2,-4.592078686E0,7.362170219E0,1.932120800E0
2.156258812E2,1.773863983E1,8.690952301E0,2.425326347E0
2.158770409E2,1.315613842E1,-4.675876141E0,5.985504389E-2
2.161281701E2,2.882618904E0,9.301473618E0,3.730166197E0
2.163793603E2,2.136824989E1,1.787032127E1,8.082824707E0
2.166305810E2,5.420472622E0,-7.026981831E0,-2.056619167E0
2.168816796E2,1.509304714E1,1.472912884E1,-4.831499100E0
2.171327782E2,1.491587639E1,1.695573616E1,2.547430515E0
2.173840600E2,1.915361285E-1,-6.787561893E0,9.313444495E-1
2.176353722E2,3.068648338E1,1.823423958E1,6.840234280E0
2.178866234E2,-6.279991150E0,5.585672379E0,2.904166698E0
2.181377526E2,5.149928093E0,-2.106897593E0,2.985569477E0
2.183886071E2,8.520963669E0,-4.015076160E0,-7.101202011E0
2.186396752E2,-5.032611847E0,8.101978302E0,6.361393929E0
2.188908654E2,1.741781807E1,8.659827232E0,3.545812607E0
2.191421166E2,7.924807549E0,-8.954314232E0,-1.012747288E0
2.193935814E2,3.904942989E0,1.145864964E1,5.808333397E0
2.196448937E2,2.598427010E1,1.993172836E1,6.600813866E0
2.198961754E2,1.204283476E0,-8.465897560E0,-2.647987127E0
2.201474877E2,1.411381912E1,1.839225769E1,5.566518784E0
2.203986474E2,8.370129585E0,1.684320831E1,6.495469093E0
2.206498681E2,1.173158884E0,-3.739742994E0,-4.022258759E0
2.209009972E2,2.726277542E1,1.609382439E1,7.572859764E0
2.211522179E2,-9.097966552E-1,1.252885723E1,4.905719280E0
2.214034997E2,3.428496838E0,-8.259995580E-1,-1.855506301E0
2.216548424E2,1.286404610E1,2.130839527E-1,-2.899378300E0
2.219057885E2,-4.199429989E0,8.003816605E0,2.485181332E0
2.221571618E2,1.344583702E1,9.502586365E0,2.885013103E0
2.224086179E2,1.037407589E1,-5.456385612E0,-1.532289088E-1
2.226598386E2,3.550601006E0,1.016578007E1,1.206677675E0
2.229112729E2,2.369541359E1,2.575203323E1,1.179623222E1
2.231624936E2,3.502717018E0,-7.343016624E0,-1.249773264E0
2.234135312E2,1.912727737E1,1.785835075E1,-5.164293289E0
2.236644162E2,1.080263805E1,1.187284660E1,7.565677166E0
2.239157895E2,1.965639591E0,-6.052541733E0,2.638410330E0
2.241670713E2,3.798161697E1,1.989102745E1,8.674192429E0
2.244179563E2,-3.632004023E0,9.923966408E0,4.039018154E0
2.246693601E2,4.225766182E0,-2.233790159E0,4.927267075E0
2.249205197E2,1.161906052E1,1.929726601E0,-6.414066315E0
2.251718930E2,-5.152322292E0,3.833117008E0,1.122880578E0
2.254229612E2,1.649844360E1,9.490615845E0,8.121131897E0
2.256740598E2,8.937555313E0,-8.518569946E0,-5.506663918E-1
2.259253110E2,6.799532771E-1,8.054094315E0,3.696647406E0
2.261764096E2,1.933078384E1,1.645055962E1,5.612008572E0
2.264274472E2,2.032677174E0,-9.703699112E0,-1.491587639E0
2.266790952E2,1.159990692E1,1.609142876E1,-2.458845139E0
2.269301633E2,1.351766300E1,1.891419411E1,8.104372978E0
2.271810178E2,3.203441858E0,-5.272032261E0,-2.097320795E0
2.274324521E2,2.711194038E1,1.984314346E1,6.481103897E0
2.276837033E2,-1.206677675E0,1.028070164E1,6.078877926E0
2.279348935E2,7.422025502E-2,-3.289633036E0,1.285686255E0
2.281858396E2,1.465011978E1,3.794809580E0,-6.155492783E0
2.284373655E2,-7.388506413E0,8.216899872E0,3.596091032E0
2.286886777E2,1.945288849E1,9.100360870E0,1.843535304E-1
2.289400510E2,1.085052204E1,-6.500257492E0,9.241618514E-1
2.291912107E2,3.062183857E0,8.774748802E0,2.784456491E0
2.294422788E2,1.922065163E1,1.877293587E1,8.999804497E0
2.296935605E2,2.628833532E0,-7.951143742E0,-3.303998232E0
2.299447507E2,2.143050003E1,1.951992607E1,2.219424963E0
2.301957578E2,1.480574322E1,1.735556793E1,9.557653427E0
2.304467343E2,1.752555609E0,-6.057330132E0,-3.639186621E-1
2.306979551E2,2.903687859E1,1.958456993E1,5.219359875E0
2.309490842E2,-2.686294317E0,8.094796181E0,2.456450939E0
2.312003659E2,3.957615376E0,-7.254431248E-1,2.126051188E0
2.314514951E2,7.903259754E0,5.530605912E-1,-2.693476915E0
2.317025022E2,-6.435614109E0,4.436455727E0,2.736572504E0
2.319536313E2,1.779849625E1,9.493009567E0,1.496376038E0
2.322044858E2,1.169328117E1,-5.793968201E0,1.841141105E0
2.324554013E2,2.135627985E0,8.228871346E0,1.702277422E0
2.327068967E2,1.719515610E1,1.510262394E1,5.037400246E0
2.329581784E2,2.679111719E0,-8.975862503E0,-2.688688517E0
2.332089414E2,1.210508347E1,1.560540676E1,-2.130839586E0
2.334600705E2,1.255519390E1,1.352245140E1,1.026394272E1
2.337113828E2,3.878606856E-1,-8.422801971E0,-1.525106430E0
2.339626340E2,2.372893333E1,2.198116493E1,2.140416384E0
2.342136716E2,8.719682693E0,1.448731422E1,7.405265808E0
2.344648923E2,8.810662031E-1,-4.618414879E0,2.281674147E0
2.347155637E2,3.197456360E1,1.708502388E1,6.780379295E0
2.349669675E2,-2.506729126E0,8.681375504E0,3.047818661E0
2.352186765E2,6.481103897E0,1.369483352E0,8.343792915E0
2.354699887E2,1.063743782E1,2.753331959E-1,-4.826710701E0
2.357211789E2,-9.536105156E0,1.369483352E0,2.920926213E-1
2.359718503E2,1.727895355E1,1.252167511E1,5.513846397E0
2.362234372E2,1.094629002E1,-2.157175779E0,3.567360640E0
2.364749936E2,6.248866320E-1,7.649474621E0,3.612850428E0
2.367264280E2,1.244027233E1,1.580412579E1,1.400607967E1
2.369779538E2,2.513911724E0,-5.784391403E0,-4.225766182E0
2.372296933E2,7.156269073E0,1.381454372E1,1.679053688E1
2.374806394E2,3.327940464E0,1.455435181E1,1.046505547E1
2.377315854E2,2.851494312E0,-5.837063789E0,-1.592144132E0
2.379828366E2,1.699883270E1,8.394071579E0,1.714966583E1
2.382340879E2,8.224082947E0,1.879208946E1,1.033098030E1
2.384853696E2,1.130063176E0,-6.026205540E0,-1.963245422E-1
2.387364377E2,3.177345085E1,8.918401718E0,1.437478733E1
2.389875364E2,-4.623203278E0,9.701305389E0,6.356605530E0
2.392388181E2,8.841787338E0,1.580173135E0,4.189853072E-1
2.394896726E2,9.234436035E0,-6.928819656E0,3.591302410E-2
2.397408933E2,-4.730942726E0,7.350199223E0,3.768473387E0
2.399917478E2,1.278503704E1,1.202846909E1,5.434837818E0
2.402426023E2,5.434837937E-1,-1.205241108E1,-5.700594425E0
2.404937619E2,1.111149025E1,1.258152962E1,-1.369483352E0
2.407449216E2,1.630930138E1,1.676898956E1,9.258378029E0
2.409961118E2,1.197100878E-1,-6.849811077E0,7.110779285E-1
2.412474240E2,3.057874489E1,1.978089523E1,6.619967937E0
2.414983091E2,1.256716442E1,1.726219368E1,8.312667847E0
2.417493467E2,2.944868207E-1,-6.751648903E0,2.006340981E0
2.420003843E2,2.959233284E1,1.327105999E1,4.927267075E0
2.422512082E2,-4.958391666E0,8.159439087E0,4.443638325E0
2.425022153E2,1.180820274E1,3.660734415E0,6.224924326E-2
2.427533750E2,1.135569859E1,-3.873818398E0,-8.236053586E-1
2.430045652E2,-1.989581585E0,8.892065048E0,3.608062029E0
2.432556943E2,1.670195198E1,1.105642319E1,4.884171486E0
2.435066709E2,1.144428372E0,-1.215775585E1,-3.598485231E0
2.437578916E2,9.284713745E0,1.173637676E1,-4.046200812E-1
2.440089597E2,2.752613640E1,2.314714241E1,7.283161640E0
2.442600583E2,1.434126854E0,-9.536105156E0,-3.028665066E0
2.445111570E2,2.166991997E1,2.021663857E1,3.303998411E-1
2.447620420E2,1.059673691E1,1.685278511E1,7.297526836E0
2.450132932E2,1.256955862E0,-6.083666325E0,-5.985504389E-2
2.452643613E2,3.131136894E1,1.733880806E1,8.597578049E0
2.455156736E2,-4.055777550E0,1.016099167E1,5.942408562E0
2.457667112E2,5.877765179E0,-6.392518282E-1,9.959878922E-1
2.460179929E2,9.842563629E0,-3.421314240E0,-6.991068840E0
2.462697019E2,-4.388571739E0,8.214506149E0,3.107673883E0
2.465208615E2,1.772666931E1,8.413225174E0,1.264138460E0
2.467713193E2,1.136527538E1,-7.184999466E0,-1.271321058E0
2.470229062E2,4.299986362E0,9.306262016E0,4.807557106E0
2.472740964E2,1.977610588E1,1.455435181E1,8.899248123E0
2.475241574E2,1.563413739E0,-1.118331623E1,-1.522712231E0
2.477755918E2,9.794678688E0,1.328303146E1,-6.320692539E0
2.480262632E2,1.218169785E1,1.785356140E1,3.981557369E0
2.482773313E2,2.576161146E0,-5.944802761E0,-1.017535686E0
2.485289792E2,3.199371719E1,2.516784859E1,9.976638794E0
2.487805661E2,1.498770237E0,1.262462521E1,3.399766445E0
2.490316922E2,3.785232782E0,-2.487575531E0,1.067813993E0
2.492823025E2,3.427060318E1,1.385524559E1,6.323086739E0
2.495337674E2,-9.162610054E0,5.753266811E0,-9.337386489E-2
2.497845913E2,1.026154804E1,2.762908697E0,9.423578262E0
2.500357510E2,1.671392250E1,-1.908178806E0,-3.699041605E0
2.502874295E2,-3.354276657E0,7.196970463E0,-2.870647907E0
2.505393216E2,1.474110031E1,1.169806957E1,3.014299870E0
2.507901761E2,8.135497093E0,-6.770802498E0,2.130839527E-1
2.510411526E2,5.762843609E0,7.881711960E0,-8.738836050E-1
2.512921597E2,2.779189301E1,2.581907082E1,1.178426075E1
2.515431057E2,1.972822189E0,-1.059194851E1,-1.256955862E0
2.517950589E2,2.019748497E1,1.742021179E1,-6.296750307E-1
2.520461575E2,9.976638794E0,1.716882133E1,1.215057373E1
2.522970120E2,2.185906172E0,-7.247248650E0,-5.674257874E-1
2.525480801E2,3.257311249E1,1.983835602E1,2.226607561E0
2.527983853E2,-3.830722719E-2,1.086488724E1,1.359906554E0
2.530485379E2,3.438073635E0,-3.040636063E0,-1.005564705E-1
2.532997891E2,1.486559868E1,2.877830505E0,-2.844311714E0
2.535511319E2,-6.351817131E0,8.595184326E0,4.692635238E-1
2.538019864E2,9.476250648E0,4.460397720E0,4.192247391E0
2.540536648E2,1.605312157E1,-2.614468336E0,-1.697489023E0
2.543048550E2,1.316810966E0,6.780379295E0,2.729389906E0
2.545564813E2,1.307234097E1,1.335246277E1,9.603142738E0
2.548081903E2,4.079719543E0,-1.227746677E1,-7.084442616E0
2.550595636E2,5.880159378E0,1.292629528E1,1.113303781E0
2.553109674E2,1.701080322E1,1.863646698E1,9.437943459E0
2.555618524E2,4.742913723E0,-5.137956619E0,1.022324085E0
2.558136225E2,2.240972710E1,2.111207008E1,-7.422025204E-1
2.560648432E2,1.159990692E1,1.732923126E1,8.252813339E0
2.563163690E2,7.182605267E-1,-7.548917770E0,3.110068083E0
2.565674372E2,3.140713882E1,1.686954498E1,6.078877926E0
2.568193292E2,-4.163516521E0,9.052476883E0,3.050212860E0
2.570700006E2,5.159504890E0,-8.140286058E-2,-1.268926859E-1
2.573208856E2,8.312667847E0,-5.437232018E0,-6.007051945E0
2.575726862E2,-3.521870613E0,7.558494568E0,6.574477673E0
2.578239679E2,1.786553383E1,9.832986832E0,2.226607561E0
2.580750971E2,3.881000996E0,-8.250418663E0,-3.136404276E0
2.583262567E2,3.177105665E0,7.711723804E0,9.560047150E0
2.585767755E2,4.007893562E0,1.150892735E1,1.107078838E1
2.588281793E2,3.739742994E0,-2.901772499E0,-1.058237195E0
2.590797968E2,5.451597214E0,1.209311295E1,1.568680954E1
2.593306513E2,-6.081272364E-1,6.385335922E0,4.161122322E0
2.595816889E2,1.982398987E0,8.140286058E-2,2.834734917E0
2.598327570E2,9.576806799E-3,7.173028469E0,2.885970688E1
2.600844660E2,-5.758055210E0,2.255337954E0,3.584120035E0
2.603356256E2,3.380612850E0,3.938461781E0,5.667075634E0
2.605869379E2,1.217451572E1,-1.290474772E0,4.510675907E0
2.608386469E2,-4.321534157E0,8.259995461E0,7.714118004E0
2.610901117E2,1.881842613E1,7.194576263E0,5.942408562E0
2.613413935E2,5.181052685E0,-1.408030033E1,1.063025594E0
2.615924005E2,7.594407558E0,9.837775230E0,-5.267243981E-1
2.618437128E2,3.298491669E1,2.045366478E1,1.224394703E1
2.620949945E2,-4.381389022E-1,-1.070926380E1,-2.226607651E-1
2.623460016E2,1.926614189E1,1.729810715E1,-5.985504389E-2
2.625971308E2,9.440337181E0,1.751837349E1,7.599195957E0
2.628485346E2,1.900996208E0,-8.362946510E0,-7.182605267E-1
2.630994196E2,3.204399490E1,1.841859436E1,4.953603268E0
2.633498163E2,2.896984100E0,1.389115810E1,7.661445618E0
2.636009149E2,2.896984100E0,-6.426037312E0,3.057395458E0
2.638522882E2,1.447294903E1,1.529894829E0,-6.440402865E-1
2.641035700E2,-6.737283707E0,8.178592682E0,7.948749661E-1
2.643545160E2,1.645055962E1,7.709329605E0,7.311892033E0
2.646057367E2,5.549759388E0,-1.108515358E1,-4.661510944E0
2.648574457E2,2.834734917E0,1.048420906E1,8.475474119E-1
2.651086359E2,2.345120621E1,1.339795303E1,5.657498837E0
2.653598871E2,3.155557871E0,-8.398859978E0,-2.111685991E0
2.656112909E2,2.029564857E1,1.764766121E1,-9.744400978E-1
2.658622064E2,4.580107689E0,1.262462521E1,2.267308950E0
2.661133966E2,2.856282711E0,-4.697423935E0,2.705447972E-1
2.663644953E2,2.951571846E1,1.643379974E1,4.979939461E0
2.666157465E2,-1.812410712E0,9.708487511E0,4.309563041E-1
2.668663263E2,6.514622688E0,-1.022324085E0,7.613561153E-1
2.671171808E2,1.073560047E1,-1.589749932E0,-4.508281708E0
2.673686762E2,-3.864241600E0,6.617573261E0,9.864110947E-1
2.676198053E2,1.500206757E1,8.044517517E0,6.143521786E0
2.678709040E2,8.657433510E0,-1.084812832E1,-1.417367458E0
2.681223383E2,3.117250681E0,7.493851185E0,4.266467571E0
2.683733454E2,2.161724663E1,1.678335381E1,8.801085472E0
2.686247492E2,1.012747288E0,-9.737217903E0,-4.503493309E0
2.688759394E2,1.435563374E1,1.646253014E1,-1.316810966E0
2.691269770E2,1.583524990E1,2.090138054E1,1.014423275E1
2.693781366E2,2.966415882E0,-5.552153587E0,3.974374831E-1
2.696293268E2,3.182133484E1,2.031719589E1,9.361329079E0
2.698807916E2,8.389283180E0,1.575863552E1,6.126761913E0
2.701321039E2,3.145981073E0,-6.485892296E0,3.643975019E0
2.703833246E2,3.162261581E1,1.008677197E1,1.656787634E0
2.706350336E2,-5.477933407E0,8.197746277E0,1.501164436E0
2.708861933E2,7.510610580E0,-1.142034173E0,-2.561795712E-1
2.711371393E2,1.070447540E1,-6.981492043E0,-5.133168221E0
2.713886652E2,-2.324769735E0,1.023760605E1,2.913743496E0
2.716400690E2,1.558385849E1,7.132327080E0,4.062960148E0
2.718915015E2,9.538499832E0,-9.595960617E0,-7.757213712E-1
2.721428748E2,2.978386879E0,8.664615631E0,1.146822643E1
2.723943091E2,2.272815704E1,1.267490387E1,9.083600998E0
2.726454383E2,1.237802267E0,-1.146343803E1,-9.854534149E0
2.728965980E2,7.757213593E0,1.143949604E1,-2.284068346E0
2.731478797E2,1.876335907E1,2.067632675E1,9.059659004E0
2.733988868E2,2.990357876E0,-8.327033043E0,-1.805228114E0
2.736503516E2,2.558683395E1,2.155499840E1,-3.224989653E0
2.739018165E2,9.909601212E0,1.757104683E1,4.122815132E0
2.741530066E2,2.240972757E0,-6.330269337E0,3.869029999E0
2.744039832E2,3.268085480E1,1.580173111E1,4.515464306E0
2.746548377E2,-8.259995580E-1,1.220085144E1,1.048660398E0
2.749062415E2,9.813833237E0,-1.259350061E0,1.874659896E0
2.751569434E2,1.080263805E1,1.929726601E0,-4.680664539E0
2.754084998E2,-7.625532627E0,3.387795448E0,-1.752555609E0
2.756594153E2,1.619437981E1,1.327105999E1,3.308786631E0
2.759103003E2,5.669469833E0,-1.376426601E1,5.722141862E-1
2.761615210E2,4.278438568E0,1.272996998E1,3.177105665E0
2.764126807E2,2.139937401E1,1.571314621E1,8.092401505E0
2.766641150E2,2.296039343E0,-1.346738434E1,4.788403511E-1
2.769151526E2,1.104205799E1,1.753513336E1,-3.615244627E0
2.771667090E2,2.057098007E1,2.375766373E1,6.797138691E0
2.774181128E2,2.832340717E0,-8.657433510E0,-8.858546615E-2
2.776694251E2,3.002328873E1,2.450226021E1,1.193748951E1
2.779202491E2,7.649474621E0,1.589510536E1,5.784391403E0
2.781716529E2,8.978256583E-1,-5.293580055E0,5.770025849E-1
2.784225074E2,3.378458023E1,1.155681133E1,4.953603268E0
2.786739112E2,-4.465186119E0,9.504981041E0,5.267243832E-2
2.789251929E2,1.214099693E1,3.639186621E-1,-8.619126081E-1
2.791761390E2,1.122880554E1,-2.947262287E0,-2.135627985E0
2.794273597E2,3.177105665E0,1.114500904E1,3.892971992E0
2.796790687E2,1.276109505E1,1.009395409E1,3.545812607E0
2.799299537E2,3.703830004E0,-1.201889229E1,-4.031835556E0
2.801811744E2,4.826710701E0,9.938331604E0,-7.278373241E-1
2.804321814E2,3.255156708E1,2.749980164E1,1.112585545E1
2.806832496E2,3.859453201E0,-7.999027729E0,-2.284068346E0
2.809344092E2,1.592622948E1,1.773145866E1,6.703764796E-1
2.811853553E2,5.712565422E0,1.670434570E1,7.127538681E0
2.814366370E2,1.486799240E0,-4.759673119E0,-4.738125324E0
2.816880408E2,3.125630379E1,1.779370689E1,1.195424938E1
2.819397193E2,2.346317768E0,1.490151119E1,7.084442616E0
2.821911231E2,6.605602264E0,-3.083731890E0,5.051765442E-1
2.824421302E2,1.611776543E1,2.245761156E0,-2.829946518E0
2.826937476E2,-5.284003258E0,9.445125580E0,5.195417881E0
2.829449988E2,1.342189503E1,6.086060524E0,3.775655985E0
2.831963416E2,1.154962921E1,-7.321468830E0,-7.182605267E-1
2.834465247E2,9.121908545E-1,1.023281765E1,-2.130839527E-1
2.836976844E2,1.592144108E1,1.005564690E1,8.166622162E0
2.839495460E2,2.707842112E0,-1.196382618E1,-6.232107162E0
2.842009498E2,9.631873131E0,1.456632328E1,4.333505154E0
2.844522620E2,1.936190987E1,1.902911568E1,8.935160637E0
2.847038794E2,6.296750307E-1,-9.277531624E0,-1.118092179E0
2.849549781E2,3.557544327E1,1.896447182E1,5.149928093E0
2.852064734E2,5.485116005E0,1.316092682E1,5.324704647E0
2.854580604E2,-1.900996208E0,-8.396465302E0,-1.407790542E0
2.857096778E2,3.623863602E1,8.973467827E0,1.501164436E0
2.859607726E2,-2.834734917E0,1.091516590E1,5.075707436E-1
2.862124511E2,8.183381081E0,-4.381389022E-1,6.050147533E0
2.864636412E2,1.138682365E1,1.051054597E0,-1.472434044E0
2.867139464E2,-3.378218651E0,6.473921299E0,9.157821655E0
2.869651976E2,8.499416351E0,5.940014362E0,1.928529549E1
2.872167540E2,7.378929615E0,-4.776432514E0,6.019022942E0
2.874682189E2,-2.554613113E0,4.608838081E0,5.777208805E0
2.877183715E2,-4.462791920E0,1.331894398E1,1.672828674E1
2.879693786E2,1.666364431E0,-1.242111874E1,-4.414907932E0
2.882203856E2,1.183693314E1,1.482010841E1,-1.766920805E0
2.884716674E2,2.115277290E1,2.231156540E1,1.654154015E1
2.887229796E2,2.554613113E0,-9.251194954E0,-3.181894064E0
2.889745055E2,2.802652550E1,2.471534348E1,9.074024558E-1
2.892259093E2,7.750030994E0,1.454716969E1,7.015010834E0
2.894763060E2,2.059013397E-1,-8.176198959E0,-1.963245422E-1
2.897277099E2,4.727830124E1,1.626620674E1,1.266532707E1
2.899781371E2,1.024718285E0,1.500206757E1,7.402871609E0
2.902300597E2,3.629609823E0,-4.108449936E0,1.340752989E-1
2.904812499E2,1.374032402E1,-1.759498787E1,-5.233725071E0
2.907322875E2,-2.250549644E-1,1.251928043E1,8.714894056E-1
2.909836303E2,2.258689880E1,2.858676910E0,-4.527435303E0
2.912346068E2,3.129221678E0,-1.246900272E1,-3.952826977E0
2.914849425E2,2.964021683E0,9.588777542E0,1.980004787E0
2.917363768E2,3.439989090E1,2.445916367E1,7.589619160E0
2.919880553E2,1.723825186E-1,-1.159511852E1,-3.471592367E-1
2.922399779E2,2.095405388E1,1.691982269E1,-8.714894056E-1
2.924910460E2,1.306755257E1,1.777455330E1,3.670311213E0
2.927413512E2,2.724601507E0,-4.225766182E0,1.192312479E0
2.929926024E2,2.544318199E1,1.035492229E1,-1.628057122E0
2.932442809E2,-5.343858242E0,8.695740700E0,7.762001991E0
2.934960204E2,1.610818863E1,3.138798475E0,-1.649604917E0
2.937474242E2,1.298375607E1,-4.299986362E0,3.950432837E-1
2.939981566E2,-8.331822157E-1,6.433219910E0,2.255337954E0
2.942484618E2,1.378820801E1,1.090319443E1,7.168240070E0
2.944987059E2,2.729389906E0,-1.151132202E1,-6.706159115E0
2.947490416E2,8.995016098E0,1.222958183E1,-3.095702887E0
2.949994384E2,1.671870995E1,1.850957298E1,8.506598473E0
2.952500512E2,6.440402865E-1,-7.216124058E0,-6.727706790E-1
2.955014245E2,2.817496490E1,2.314474869E1,4.788403511E0
2.957515771E2,3.224989653E0,1.552160931E1,4.982333660E0
2.960021569E2,1.101332784E0,-4.944026470E0,-9.888052940E-1
2.962534081E2,3.171838379E1,1.026873112E1,6.239289761E0
2.965041100E2,-7.484274387E0,1.048899746E1,1.206677675E0
2.967554223E2,1.108994198E1,1.264138460E0,2.240972757E0
2.970056054E2,1.310825443E1,-1.764526606E0,-1.127668977E0
2.972558190E2,-3.236960649E0,7.082048416E0,1.034295082E0
2.975060326E2,1.527021885E1,1.362779617E1,3.093308687E0
2.977561242E2,2.647987127E0,-1.346259594E1,-5.161899090E0
2.980064599E2,7.896077156E0,1.056800652E1,-6.442796707E0
2.982564599E2,1.962527084E1,2.102827263E1,6.552929878E0
2.985066125E2,5.075707436E-1,-7.999027729E0,-2.552218914E0
2.987568261E2,2.671450233E1,2.075772858E1,4.383783340E0
2.990069482E2,5.425261021E0,1.620156288E1,5.353435040E0
2.992570702E2,2.221819162E0,-3.093308687E0,-3.519476354E-1
2.995073449E2,2.402820778E1,6.440402508E0,3.423708439E0
2.997576501E2,-5.547365189E0,1.023042393E1,8.173804283E0
