"Time (s)","Gyroscope x (rad/s)","Gyroscope y (rad/s)","Gyroscope z (rad/s)"
1.379394500E-2,-1.829591751E0,-5.326322317E-1,1.137702465E0
2.638854980E-1,4.016047120E-1,1.346494317E0,-1.695901036E0
5.140075680E-1,1.955292940E0,-9.747169912E-2,6.428871155E-1
7.641296390E-1,-2.364886999E0,-2.640257835E0,2.230663776E0
1.015502930E0,6.391586736E-3,2.332929224E-1,-6.727145314E-1
1.266906738E0,2.957706690E0,3.158509135E-1,1.842907518E-1
1.518035889E0,-3.068494320E0,-1.941444516E0,2.209358454E0
1.768676758E0,5.219795927E-2,1.129180342E-1,-5.720469952E-1
2.019958496E0,2.600843191E0,1.616006136E0,-8.628641963E-1
2.271179199E0,-3.753991842E0,3.888215125E-1,2.043177128E0
2.522155762E0,-3.994741738E-1,-1.289502621E0,-3.163835406E-1
2.773895264E0,2.631203175E0,1.299090028E0,-1.088167667E0
3.025085449E0,-3.750263453E0,6.114618182E-1,1.671932578E0
3.276458740E0,1.475391239E-1,-1.033306479E0,-9.283779860E-1
3.527770996E0,1.736913681E0,2.207760572E0,-2.302569151E0
3.778747559E0,-2.034655094E0,-2.290318608E-1,1.200553060E0
4.029876709E0,-3.131877482E-1,-6.945524216E-1,5.289037824E-1
4.281158447E0,2.533731461E0,1.384843737E-1,-2.229065895E0
4.532409668E0,-2.287122726E0,5.177185535E-1,3.062635362E-1
4.783813477E0,-4.005394280E-1,-1.413073301E0,2.711097896E-1
5.034820557E0,1.583515644E0,8.665926456E-1,-2.347842932E0
5.285824206E0,-1.033306479E0,4.490089715E-1,7.925567627E-1
5.537075427E0,-1.002413869E0,-2.253566980E0,8.426241875E-1
5.788387683E0,3.828027725E0,8.468852639E-1,-3.708718300E0
6.039944079E0,-1.167529821E0,9.369000793E-1,1.026914954E0
6.291439441E0,-5.470132828E-1,-2.324407101E0,1.831722260E0
6.542751697E0,1.785383224E0,7.430219650E-1,-3.124953270E0
6.794002917E0,-4.245078862E-1,1.352353215E0,1.255414128E0
7.045528796E0,-1.389637470E0,-2.689792633E0,1.274588943E0
7.296871570E0,2.591255903E0,1.003479123E0,-2.977946758E0
7.548061755E0,2.482066154E-1,2.146507949E-1,7.829693556E-1
7.799404529E0,-1.975000262E0,-1.192030907E0,9.219864011E-1
8.050289538E0,2.564624071E0,1.712945223E0,-2.263154268E0
8.301662829E0,-1.081243455E-1,1.437041759E0,-7.488809228E-1
8.552517322E0,-2.504436731E0,-9.981527925E-1,8.261125684E-1
8.803829577E0,7.696535587E-1,2.572613716E0,-2.578472614E0
9.055080798E0,4.048005044E-1,8.586031795E-1,2.561961114E-1
9.306332019E0,-1.294828892E0,-3.882888854E-1,9.384979606E-1
9.557064441E0,1.165399313E0,1.859951735E0,-2.561960936E0
9.808376697E0,1.129180312E0,-5.326322280E-3,-2.055960447E-1
1.005953637E1,-1.755023241E0,-2.956108749E-1,2.036252975E0
1.031090966E1,2.836799145E0,1.174454093E0,-1.961684465E0
1.056234398E1,1.363005877E0,9.603359103E-1,3.675162494E-1
1.081380883E1,-3.479153633E0,4.660531878E-1,1.428519607E0
1.106524315E1,1.169127703E0,1.098287702E0,-1.391767979E0
1.131652489E1,1.244228840E0,5.214469433E-1,2.508697808E-1
1.156759300E1,-9.843043685E-1,-1.253816247E0,1.390170097E0
1.181921044E1,4.596616030E-1,2.748382390E-1,-2.865561247E-1
1.207012596E1,1.841842294E0,9.299758673E-1,-3.030677438E-1
1.232137719E1,-2.065015078E0,-2.657834888E-1,1.374723792E0
1.257265892E1,-9.161274135E-2,-5.699164867E-1,1.651159972E-1
1.282378807E1,2.192314148E0,6.332997084E-1,-5.725796223E-1
1.307510033E1,-2.412823915E0,1.323058486E0,3.051982522E-1
1.332635155E1,-5.390238166E-1,-1.015197039E0,7.467503548E-1
1.357778588E1,3.114833355E0,1.422128081E0,-1.310807943E0
1.382891503E1,-2.893790960E0,1.486043930E-1,6.237123609E-1
1.408047142E1,-1.906823367E-1,-1.774730563E0,-1.139832959E-1
1.433099022E1,6.061354876E-1,1.903095007E0,-2.019208670E0
1.458251610E1,-9.614011645E-1,-7.297061682E-1,8.064051867E-1
1.483443871E1,-3.259709179E-1,-1.296959519E0,6.695187092E-1
1.508596459E1,3.152650118E0,1.190433025E0,-2.933738232E0
1.533727684E1,-1.129712939E0,1.451955438E0,9.155948162E-1
1.558871117E1,-1.122256160E0,-2.380866051E0,8.815063238E-1
1.583990136E1,2.958239317E0,1.364603758E0,-3.141464949E0
1.609130516E1,-9.885654449E-1,7.025418878E-1,6.402239203E-1
1.634273949E1,-1.899366498E0,-2.800047636E0,1.305481553E0
1.659417382E1,1.443965912E0,2.135322571E0,-3.369431496E0
1.684557762E1,-2.609897852E-1,7.637946010E-1,-3.728425503E-2
1.709682884E1,-1.547829270E0,-9.092032313E-1,-2.556634694E-2
1.734804955E1,1.197889924E0,3.831756353E0,-3.487675905E0
1.759945336E1,1.427454352E0,6.769755483E-1,3.925499618E-1
1.785100975E1,-1.456216455E0,-1.342233181E0,1.744370580E0
1.810235253E1,1.127582431E0,4.006992340E0,-2.307362795E0
1.835400048E1,1.730522156E0,2.988066673E-1,3.834952042E-2
1.860516014E1,-2.073537350E0,-9.065400362E-1,1.545166135E0
1.885607567E1,6.546050310E-1,1.596831441E0,-2.157160521E0
1.910723534E1,1.443965912E0,3.051982522E-1,5.161206126E-1
1.935805931E1,-2.809102297E0,-1.539307088E-1,9.805759192E-1
1.960964623E1,2.796319127E-1,5.219795704E-1,-1.092961311E0
1.986117211E1,1.866343379E0,7.542072535E-1,9.150621891E-1
2.011239281E1,-3.412042141E0,-1.568069220E0,9.390306473E-1
2.036343041E1,-3.446130455E-1,3.195793331E-1,-1.842907518E-1
2.061449852E1,2.671683311E0,7.829693556E-1,1.001348615E0
2.086553612E1,-3.022155285E0,-7.366303802E-1,1.152083516E0
2.111660424E1,-6.274407506E-1,-9.198558331E-1,1.331580579E-1
2.136758080E1,1.592570305E0,2.146507949E-1,2.141181529E-1
2.161898461E1,-1.432780743E0,3.744404614E-1,6.162554622E-1
2.187011376E1,-4.415521026E-1,-1.427986979E0,-5.699164793E-2
2.212118187E1,9.342369437E-1,1.458879709E0,-7.329019308E-1
2.237182274E1,-2.542786360E0,-3.968110085E-1,2.902845740E-1
2.262301293E1,-3.936152160E-1,-1.828526497E0,5.331648588E-1
2.287420311E1,1.503620744E0,2.161954165E0,-1.859951735E0
2.312499657E1,-1.262338400E0,-1.789644361E-1,1.061003447E0
2.337563744E1,-1.006674886E0,-2.397377729E0,9.342369437E-1
2.362679711E1,2.645051718E0,1.905225515E0,-2.550243139E0
2.387765160E1,-1.020523310E0,5.560680628E-1,2.716424465E-1
2.412884179E1,-1.662345171E0,-2.968359470E0,1.558481932E0
2.438033715E1,3.795537233E0,1.680987358E0,-2.635996819E0
2.463167992E1,-6.908239722E-1,1.241033077E0,1.699096859E-1
2.488280907E1,-1.201618314E0,-2.140648842E0,9.086706042E-1
2.513375512E1,2.600310564E0,7.978830934E-1,-1.274588943E0
2.538518944E1,3.856257200E-1,-1.347559541E-1,4.735100567E-1
2.563622704E1,-2.499110460E0,-1.015197039E0,1.351287961E0
2.588702050E1,1.195759296E0,3.491404295E0,-3.154247999E0
2.613824120E1,1.288969994E0,1.933455020E-1,6.785734296E-1
2.638946190E1,-2.280198574E0,2.135855258E-1,9.038769007E-1
2.664043846E1,1.212270975E0,9.741843343E-1,-2.538525105E0
2.689178124E1,1.794438004E0,6.306365728E-1,3.067961633E-1
2.714300194E1,-2.041046619E0,-4.261057973E-1,2.150236368E0
2.739422264E1,1.143028736E0,-3.600593805E-1,-9.640643597E-1
2.764513817E1,1.957423449E0,4.293015897E-1,6.593986750E-1
2.789657250E1,-2.524676800E0,-1.232510924E0,1.408812284E0
2.814797631E1,-4.463458061E-1,-9.779127836E-1,-1.858886480E-1
2.839919701E1,1.878061295E0,1.154746652E0,3.920173049E-1
2.865044823E1,-2.175802708E0,5.608617067E-1,2.300971150E-1
2.890191307E1,1.187769845E-1,-1.670334697E0,-4.308994710E-1
2.915285912E1,7.456851006E-1,1.068460226E0,-1.232510924E0
2.940411034E1,-9.518138170E-1,-2.902845740E-1,-5.326322280E-3
2.965493431E1,-1.952097058E0,-1.951564431E0,6.024070382E-1
2.990609398E1,1.984587669E0,1.866876006E0,-3.749198198E0
3.015710106E1,4.953479767E-2,3.962783813E-1,4.149205089E-1
3.040832176E1,-1.636778831E0,-1.511077642E0,1.071123362E0
3.065945092E1,1.193628788E0,2.874616146E0,-3.082875252E0
3.091073265E1,6.753776670E-1,8.490157723E-1,4.756405652E-1
3.116183129E1,-2.288187981E0,-1.171790902E-2,1.187237263E0
3.141302147E1,1.050883412E0,9.763149023E-1,-1.622397780E0
3.166424218E1,1.041296005E0,5.049353242E-1,3.334277868E-1
3.191537133E1,-2.700978041E0,-2.266350031E0,1.412008047E0
3.216628685E1,-6.636597514E-1,-2.130528986E-1,2.002697140E-1
3.241741600E1,2.001631975E0,3.648530841E-1,7.052050829E-1
3.266830101E1,-1.270860553E0,1.091896072E-1,-1.049285457E-1
3.291918158E1,1.272991002E-1,-1.470064998E0,1.800296903E-1
3.317018866E1,2.028796196E0,8.788431883E-1,-5.560680628E-1
3.342110419E1,-1.704955816E0,1.177117229E-1,3.728425503E-1
3.367220282E1,-4.016047120E-1,-2.074069977E0,7.515440583E-1
3.392348456E1,2.393649340E0,1.727326274E0,-3.570766449E0
3.417452216E1,-1.078580260E0,-3.195793182E-2,7.787083387E-1
3.442565131E1,-1.431715488E0,-1.933987617E0,9.193232059E-1
3.467687201E1,1.168595076E0,1.841309667E0,-1.948368669E0
3.492784857E1,1.145691872E0,9.747169614E-1,1.257012039E-1
3.517864203E1,-1.505218625E0,-1.506816626E0,1.381647944E0
3.542964911E1,1.508414507E0,1.956358194E0,-2.935336113E0
3.568062567E1,9.624664187E-1,1.483913422E0,1.587243974E-1
3.593157172E1,-2.854908705E0,-9.661948681E-1,1.047687650E0
3.618276190E1,7.062703371E-1,1.145159304E-1,-4.277036786E-1
3.643379950E1,1.015197039E0,6.620618701E-1,4.974785149E-1
3.668480658E1,-2.335059643E0,5.054680109E-1,2.229598522E0
3.693599677E1,-1.981391907E-1,-8.202536106E-1,7.723167539E-2
3.718730902E1,2.168345690E0,7.510114312E-1,-1.378452182E0
3.743846869E1,-2.371811390E0,2.897519469E-1,-8.639294505E-1
3.768923163E1,-1.014131784E0,-2.057025671E0,1.634115696E0
3.794042182E1,1.517469168E0,2.009621382E0,-2.802178144E0
3.819133734E1,-1.089765549E0,7.115966678E-1,9.022790194E-1
3.844246649E1,-1.415203810E0,-1.886050701E0,1.450890183E0
3.869365668E1,2.064482450E0,8.394283652E-1,-3.023220539E0
3.894499945E1,6.146575809E-1,4.564658105E-1,1.390170157E-1
3.919612860E1,-1.221858382E0,-1.565938711E0,1.748098969E0
3.944716620E1,2.061286688E0,9.315737486E-1,-2.620018005E0
3.969820380E1,6.242449880E-1,1.071123362E0,-1.107875034E-1
3.994881415E1,-1.832254887E0,-5.219795704E-1,2.439455509E0
4.019997382E1,6.615292430E-1,9.544769526E-1,-2.307362795E0
4.045104193E1,6.290386319E-1,9.171926975E-1,9.720538259E-1
4.070217108E1,-3.054645777E0,-1.964880347E0,2.509230375E0
4.095330024E1,-5.912217498E-1,1.134506613E-1,5.826996565E-1
4.120427680E1,1.320927978E0,1.160073042E0,-3.488741219E-1
4.145555854E1,-2.208825827E0,-2.418150306E-1,1.492435455E0
4.170647406E1,-3.126551211E-1,-1.535046101E0,-1.283643693E-1
4.195772528E1,9.193232059E-1,9.203884602E-1,-9.022790194E-1
4.220864081E1,-8.692557812E-1,-3.787015080E-1,1.165399313E0
4.245967841E1,-9.347695708E-1,-1.297492146E0,3.946804702E-1
4.271092963E1,2.344647169E0,9.667274952E-1,-2.795253992E0
4.296157050E1,2.583266199E-1,8.255799860E-2,1.099885583E0
4.321233344E1,-2.139050961E0,-9.917612076E-1,1.152083516E0
4.346373725E1,1.735848427E0,1.813080072E0,-2.318015575E0
4.371398139E1,4.671184719E-1,-3.249056637E-2,8.149272949E-2
4.396538520E1,-2.227468014E0,-9.976201653E-1,1.264468908E0
4.421654486E1,8.564726114E-1,1.855158091E0,-2.169411182E0
4.446788764E1,1.359277487E0,-1.107875034E-1,-3.957457542E-1
4.471877265E1,-1.641039848E0,-5.816344023E-1,2.214684725E0
4.496981024E1,2.418150306E-1,7.632619739E-1,-1.008272767E0
4.522109198E1,9.491506219E-1,9.171926975E-1,3.526025414E-1
4.547209906E1,-2.557167292E0,-1.443433285E0,2.079396248E0
4.572304511E1,2.631203234E-1,5.113269389E-2,-5.752427876E-2
4.597417426E1,1.068460226E0,1.301220536E0,-2.737729549E-1
4.622533393E1,-1.234641552E0,3.041329980E-1,3.099919558E-1
4.647676825E1,2.684466541E-1,-1.507881880E0,4.335626364E-1
4.672783637E1,-2.908172011E-1,1.919606566E0,-1.584580898E0
4.697911811E1,-1.002413869E0,-6.498113275E-2,9.528790712E-1
4.723030829E1,-8.617989421E-1,-2.006425619E0,1.075917125E0
4.748125434E1,2.586994648E0,9.992180467E-1,-3.136671305E0
4.773247504E1,-3.845604658E-1,5.374259353E-1,5.251753926E-1
4.798342108E1,-1.517469168E0,-1.177649856E0,1.174454093E0
4.823458075E1,1.502022862E0,1.684183121E0,-2.669552803E0
4.848583197E1,1.212803602E0,3.882888854E-1,1.198422536E-1
4.873668647E1,-2.121474266E0,-1.061536074E0,2.605104208E0
4.898815131E1,5.486112237E-1,2.199771106E-1,-1.672465205E0
4.923912787E1,9.097358584E-1,9.315737486E-1,4.207794741E-2
4.949025702E1,-1.620267272E0,-2.294047117E0,2.530535698E0
4.974126410E1,-6.854977012E-1,-5.539375171E-2,-1.826928556E-1
4.999254584E1,1.059938192E0,1.907888651E0,-1.400822699E-1
5.024349189E1,-3.113768101E0,3.621899337E-2,2.502306223E0
5.049471259E1,-2.838929892E-1,-1.166464567E0,-3.222424984E-1
5.074626898E1,9.225190282E-1,1.681519985E0,-1.211205721E0
5.099724555E1,-2.237587929E0,1.378984809E0,7.355651259E-1
5.124831366E1,-8.575379103E-2,-1.701759934E0,-1.821602285E-1
5.149941230E1,8.239820600E-1,1.668204188E0,-2.523611546E0
5.175029731E1,-3.866910040E-1,-8.149272949E-2,8.847021461E-1
5.200154853E1,-1.726261020E0,-1.654888391E0,1.254881501E0
5.225264716E1,1.774197936E0,1.620267272E0,-3.168096542E0
5.250408148E1,9.438242912E-1,1.022653878E-1,1.169127703E0
5.275505805E1,-2.402171373E0,-1.214934111E0,9.246495366E-1
5.300603461E1,1.335841656E0,2.357430220E0,-3.342799902E0
5.325716376E1,9.693906307E-1,3.094593287E-1,-4.740426689E-2
5.350823188E1,-2.869289875E0,6.125270575E-2,2.523078918E0
5.375942206E1,5.816344023E-1,6.317018270E-1,-1.359277487E0
5.401055121E1,9.310411215E-1,4.932174385E-1,1.725728363E-1
5.426201606E1,-2.410160780E0,-1.271393180E0,2.191781521E0
5.451341986E1,2.599245310E-1,-4.117247164E-1,-2.993393242E-1
5.476454901E1,3.643204570E-1,1.002413869E0,-5.187838078E-1
5.501555609E1,-9.523464441E-1,-6.950850487E-1,5.805691481E-1
5.526686835E1,-1.587243974E-1,-9.092032313E-1,-7.723167539E-2
5.551775336E1,2.800580263E0,7.153250575E-1,-2.809634924E0
5.576876044E1,-2.652508616E-1,-4.617921412E-1,1.018925428E0
5.601952338E1,-2.892192900E-1,-1.881789684E0,8.362326026E-1
5.627092719E1,2.901780367E0,1.179247737E0,-3.452522039E0
5.652190375E1,-4.846953228E-2,7.462177277E-1,1.858886480E-1
5.677291083E1,-2.039448738E0,-6.524744630E-1,8.948221207E-1
5.702407050E1,-1.056209683E0,2.222674370E0,-2.570483208E0
5.727507758E1,2.346245050E0,6.103965044E-1,-6.572681665E-1
5.752632880E1,-3.249056578E0,-1.323591113E0,2.733468533E0
5.777754950E1,1.222923636E0,5.475459099E-1,-1.181910872E0
5.802858710E1,1.690042019E0,1.076982379E0,6.604639888E-1
5.827974677E1,-2.849049807E0,-1.344896317E0,2.189651012E0
5.853118109E1,1.699096859E-1,-7.840346098E-1,-7.403588295E-2
5.878194403E1,9.092032313E-1,1.224521518E0,-3.898867965E-1
5.903310370E1,-1.723065257E0,7.243798673E-2,4.740426838E-1
5.928453803E1,-1.043959185E-1,-1.270327806E0,6.348975897E-1
5.953554511E1,2.246642828E0,1.174454093E0,-2.446379900E0
5.978685736E1,-6.775081754E-1,8.841694891E-2,1.142496109E0
6.003844428E1,-1.735848427E0,-1.527589202E0,8.554073572E-1
6.028926825E1,2.013882399E0,5.635249019E-1,-3.064765930E0
6.054058051E1,9.800432920E-1,2.556634694E-2,2.130528912E-2
6.079174018E1,-2.262089014E0,-5.470132828E-1,1.417334318E0
6.104289984E1,1.114799261E0,1.470064998E0,-3.282612324E0
6.129415106E1,1.241565704E0,7.435545921E-1,4.820321798E-1
6.154515814E1,-3.520166397E0,-4.223773479E-1,3.017894268E0
6.179628730E1,7.611314654E-1,5.416869521E-1,-2.247707993E-1
6.204769110E1,7.664577961E-1,9.235842824E-1,3.957457542E-1
6.229891181E1,-3.468501091E0,-1.195226669E0,1.911617041E0
6.255004096E1,1.544633508E-1,-5.912217870E-2,-3.680488765E-1
6.280120063E1,6.199839115E-1,1.658084154E0,1.033306494E-1
6.305217719E1,-1.677258849E0,-3.589941263E-1,7.526093125E-1
6.330330634E1,-5.075985193E-1,-7.057377100E-1,8.948221803E-2
6.355434394E1,5.129248500E-1,1.926530719E0,-1.569134593E0
6.380535102E1,-5.017395616E-1,-2.130528912E-2,1.102016091E0
6.405657172E1,-1.641572475E0,-1.333711147E0,7.989483327E-2
6.430763983E1,2.009088755E0,1.989914060E0,-3.232544899E0
6.455858588E1,1.098287702E0,1.241033077E-1,-1.422128081E-1
6.480992865E1,-1.545698762E0,2.785666585E-1,1.656486273E0
6.506157660E1,1.322525859E0,2.550243139E0,-2.816559315E0
6.531304145E1,8.127967715E-1,-6.977482140E-2,2.684466541E-1
6.556435370E1,-1.623995662E0,-2.720685482E0,2.567820072E0
6.581618476E1,1.556884050E0,2.391518652E-1,-1.218129873E0
6.606758857E1,3.653857112E-1,7.797735929E-1,6.833671331E-1
6.631859564E1,-2.499643087E0,-1.895105481E0,1.656486273E0
6.657021308E1,-1.818939090E0,7.653924823E-1,-3.792341352E-1
6.682174086E1,1.052481294E0,1.085504532E0,-8.586031795E-1
6.707351088E1,-1.459944963E0,-3.765709996E-1,7.968178391E-1
6.732464003E1,-5.502091050E-1,-1.587244034E0,7.850999236E-1
6.757607435E1,1.516403913E0,7.371630073E-1,-1.897235990E0
6.782793593E1,-1.134506613E-1,1.704423130E-2,9.534116983E-1
6.807885145E1,-1.633583069E0,-1.154746652E0,1.206411958E0
6.832949232E1,1.440237522E0,1.254881501E0,-3.635747671E0
6.858071303E1,2.993393242E-1,2.215750068E-1,2.348908186E-1
6.883092665E1,-2.155030012E0,-8.143946528E-1,1.402420640E0
6.908251356E1,1.567003965E0,2.147040606E0,-3.356115580E0
6.933358168E1,1.654888391E0,3.286340833E-1,1.074319243E0
6.958532118E1,-2.608299971E0,6.498113275E-2,1.699096799E0
6.983648085E1,1.118527725E-2,9.422264099E-1,-1.309210062E0
7.008843397E1,1.626126170E0,4.372910559E-1,-1.145159304E-1
7.033913588E1,-9.592706561E-1,-1.729989529E0,8.165252209E-1
7.059105848E1,3.845604658E-1,-6.961503029E-1,-3.238403797E-1
7.084230970E1,8.293083906E-1,1.080710769E0,6.125270575E-2
7.109371351E1,-1.527056575E0,1.235706806E-1,4.122573435E-1
7.134514784E1,-6.412891746E-1,-1.410410166E0,6.705839634E-1
7.159655165E1,2.780872822E0,1.639441967E0,-2.584864140E0
7.184743666E1,-4.580637217E-1,-2.253034264E-1,7.478156686E-1
7.209920668E1,-1.938248634E0,-8.863000274E-1,9.044095278E-1
7.234963392E1,2.300971270E0,2.436792374E0,-3.979295492E0
7.260146498E1,1.716140985E0,9.587380290E-2,-1.608549356E-1
7.285271620E1,-1.026382327E0,-1.810416937E0,2.981142521E0
7.310326552E1,9.688580036E-1,6.226470470E-1,-2.655704260E0
7.335405897E1,1.740109444E0,7.526093125E-1,1.733717918E0
7.360534071E1,-2.894856215E0,-1.850364327E0,9.369000793E-1
7.385628676E1,-8.633968234E-1,5.326322280E-3,-3.462109566E-1
7.410787367E1,1.577124000E0,6.700513363E-1,1.085504532E0
7.435924696E1,-1.719869494E0,3.515372574E-1,3.115898669E-1
7.461077284E1,-2.279665917E-1,-7.302387953E-1,6.317018270E-1
7.486120009E1,1.176584601E0,8.069378138E-1,-1.006674886E0
7.511306166E1,-6.066681147E-1,-3.089267015E-1,2.247707993E-1
7.536434340E1,-7.664577961E-1,-2.282329082E0,1.542502880E0
7.561596083E1,1.648496747E0,1.637844086E0,-3.339071512E0
7.586718153E1,1.776861072E0,6.024070382E-1,-1.406149119E-1
7.611873793E1,-3.235740900E0,-1.489239693E0,4.719121456E-1
7.637029432E1,1.760349512E0,8.554073572E-1,-3.025883675E0
7.662178969E1,1.460477591E0,9.219864011E-1,2.258360684E-1
7.687301039E1,-1.444498658E0,-7.147924304E-1,1.986185551E0
7.712453627E1,-6.743124127E-1,4.079962969E-1,-7.185208797E-1
7.737539076E1,1.358744860E0,7.605988383E-1,4.016047120E-1
7.762633681E1,-2.224272251E0,-1.523328125E-1,1.881789684E0
7.787783217E1,-4.548679292E-1,-5.273059011E-1,-9.800432622E-2
7.812926649E1,1.353418469E0,2.822950855E-2,-1.090298176E0
7.838091444E1,-9.880327582E-1,1.097222418E-1,4.958806038E-1
7.863283705E1,-8.335694075E-1,-1.625593543E0,9.177253246E-1
7.888411879E1,2.483131409E0,1.423193336E0,-2.887399197E0
7.913543104E1,1.896170676E-1,5.214469433E-1,1.108407617E0
7.938710951E1,-1.315601587E0,-7.707188129E-1,6.322344542E-1
7.963799452E1,8.671252728E-1,2.117745638E0,-3.265568256E0
7.988875746E1,1.579787135E0,4.303668439E-1,3.312972486E-1
8.013976454E1,-1.947836041E0,-3.334277868E-1,2.594984293E0
8.039171766E1,2.226402760E-1,6.024070382E-1,-2.120409012E0
8.064299940E1,8.591358066E-1,4.165183902E-1,1.347559571E0
8.089367079E1,-2.610430479E0,-1.598961949E0,2.445847273E0
8.114492201E1,-8.639294505E-1,-1.349690080E0,4.463458061E-1
8.139550184E1,6.924219131E-1,2.042644501E0,-1.680454731E0
8.164559340E1,-7.068029642E-1,-2.876214087E-1,5.816344023E-1
8.189647841E1,-7.286409140E-1,-1.499359727E0,1.166464567E0
8.214711928E1,2.103897333E0,1.309210062E0,-3.226686001E0
8.239846205E1,-4.362258017E-1,7.712514400E-1,1.087102413E0
8.264956068E1,-1.521730304E0,2.295644879E-1,1.083373904E0
8.290108656E1,1.629854560E0,2.222674370E0,-3.153182745E0
8.315214638E1,8.580704927E-1,1.352885813E-1,1.001348570E-1
8.340300087E1,-1.651159883E0,3.366235793E-1,1.915878177E0
8.365400796E1,3.222424984E-1,6.018744111E-1,-1.906290770E0
8.390568642E1,1.452488065E0,4.500742257E-1,5.161206126E-1
8.415712075E1,-2.619485378E0,-1.223456264E0,2.109756231E0
8.440815834E1,-1.071123362E0,-3.813646734E-1,6.141249537E-1
8.466001992E1,1.051416039E0,6.199839115E-1,-1.383778572E0
8.491096596E1,-9.257147908E-1,9.214537591E-2,7.664577961E-1
8.516111855E1,-3.185140789E-1,-6.215817928E-1,8.623315692E-1
8.541209511E1,2.282861710E0,4.335626364E-1,-2.442118883E0
8.566365151E1,-5.091964006E-1,-3.930825889E-1,1.321460605E0
8.591487221E1,-1.753957868E0,-1.031708598E0,1.241565704E0
8.616664223E1,2.305764914E0,1.802960038E0,-4.100203037E0
8.641825966E1,1.017327532E-1,3.414172530E-1,4.495415986E-1
8.666935830E1,-9.299758673E-1,-5.747101903E-1,2.257827997E0
8.692009072E1,1.504685998E0,9.550095797E-1,-2.203499556E0
8.717131142E1,1.898833871E0,-1.470064968E-1,4.980111420E-1
8.742140297E1,-3.314570427E0,-5.464806557E-1,1.851429582E0
8.767311196E1,-1.144093990E0,1.725728363E-1,-5.512743592E-1
8.792427163E1,6.354302764E-1,1.004544377E0,-4.580637217E-1
8.817588906E1,-1.558481932E0,7.962851524E-1,2.019741297E0
8.842701821E1,-1.092428684E0,-5.997439027E-1,7.201187611E-1
8.867793374E1,1.604288220E0,3.014698327E-1,-7.403587699E-1
8.892909340E1,-5.427522659E-1,-1.177117229E-1,4.724447727E-1
8.918046670E1,-1.586711407E0,-1.539839745E0,1.393365860E0
8.943183999E1,2.782470703E0,9.432916641E-1,-4.046407223E0
8.968238930E1,3.760383427E-1,9.113337398E-1,4.564658105E-1
8.993409829E1,-1.234108925E0,-5.986786485E-1,4.926848114E-1
9.018478084E1,1.036502361E0,2.089516163E0,-2.677542210E0
9.043597102E1,1.669802070E0,-4.426173866E-1,5.603290796E-1
9.068728328E1,-2.474076748E0,1.304948926E-1,2.366484880E0
9.093774104E1,-7.030745596E-2,1.352885842E0,-1.639441967E0
9.118963313E1,1.319862604E0,6.929545403E-1,7.142598033E-1
9.144085384E1,-2.571548462E0,-7.930893898E-1,1.604288220E0
9.169183040E1,-9.800432622E-2,-2.077265680E-1,-1.288969964E-1
9.194299007E1,8.213189244E-1,-1.917476021E-2,-3.563309610E-1
9.219399715E1,-1.053546548E0,-8.649947643E-1,6.301039457E-1
9.244537044E1,-1.134506702E0,-8.463526368E-1,-1.198422536E-1
9.269659114E1,1.283643723E0,1.584580898E0,-2.453304052E0
9.294662166E1,-4.330300093E-1,5.379585624E-1,2.535329461E-1
9.319759822E1,-1.771534801E0,8.415589482E-2,7.776430249E-1
9.344958186E1,2.125202656E0,1.355548978E0,-1.459944963E0
9.370122981E1,2.769687474E-1,4.351605177E-1,-1.443433315E-1
9.395153499E1,-5.113269091E-1,-1.278317332E0,9.416937828E-1
9.420293880E1,1.462608099E0,1.400822759E0,-1.809884310E0
9.445357967E1,2.796319127E-1,7.669904232E-1,7.153250575E-1
9.470513606E1,-1.928128719E0,-2.183792114E0,2.160888910E0
9.495629573E1,1.017327532E-1,-3.089267015E-2,-9.784454107E-1
9.520727229E1,1.601092458E0,1.411475390E-1,6.625944972E-1
9.545891221E1,-2.241316319E0,-4.783037305E-1,2.286590099E0
9.571013292E1,-3.057309091E-1,-9.305084944E-1,1.491370238E-2
9.596117051E1,1.450890183E0,1.143561363E0,-1.667671561E0
9.621123155E1,-1.106809735E0,-4.783037305E-1,1.345429063E0
9.646281846E1,-1.108940244E0,-1.239967823E0,6.295713186E-1
9.671400865E1,2.808569670E0,1.475923896E0,-3.318831444E0
9.696562608E1,7.909588814E-1,4.740426689E-2,6.040049195E-1
9.721709092E1,-1.465803862E0,-5.459480286E-1,1.469532371E0
9.746867784E1,1.153681397E0,2.337722778E0,-2.754241228E0
9.771962388E1,1.290035248E0,-1.012001187E-2,3.020024598E-1
9.797114976E1,-2.000566721E0,-1.896170676E-1,2.916694164E0
9.822182115E1,1.182443574E-1,-2.114549875E-1,-7.701861858E-1
9.847279771E1,1.218662500E0,8.889631629E-1,2.593919039E-1
9.872426256E1,-2.523611546E0,-4.511395097E-1,1.834918022E0
9.897557481E1,-3.877562582E-1,-6.130596995E-1,-2.396845073E-1
9.922636827E1,1.125451922E0,-2.391518652E-1,-5.139901042E-1
9.947713121E1,-7.595335841E-1,-5.203816891E-1,1.059405446E0
9.972795518E1,-6.572681665E-1,-8.644620776E-1,3.328951299E-1
9.997874864E1,2.036785603E0,1.870071769E0,-2.553438902E0
1.002296336E2,-1.640507281E-1,2.759034932E-1,3.595267534E-1
1.004807356E2,-5.725796223E-1,-5.512743592E-1,1.194161415E0
1.007321394E2,7.494135499E-1,2.397910357E0,-3.853594065E0
1.009834211E2,1.308144808E0,1.251685768E-1,9.400959015E-1
1.012348249E2,-3.267166138E0,-1.267664731E-1,2.653573751E0
1.014860456E2,6.833671331E-1,4.186489284E-1,-2.592853785E0
1.017372053E2,1.329450011E0,2.870887816E-1,9.267801046E-1
1.019885176E2,-2.214152098E0,-7.733820081E-1,1.097755075E0
1.022397383E2,-1.334243774E0,1.938781291E-1,-2.743056118E-1
1.024910200E2,2.069276094E0,5.965480804E-1,-1.113201380E-1
1.027421186E2,-3.392867148E-1,1.129180342E-1,1.209075153E-1
1.029932478E2,-1.899899125E0,-6.109291911E-1,1.205346704E0
1.032441938E2,2.634398937E0,9.507485032E-1,-2.160888910E0
1.034954145E2,-9.592706561E-1,-3.824299276E-1,1.113734007E0
1.037466047E2,-2.052764654E0,-5.619270205E-1,1.265534163E0
1.039973066E2,1.867941260E0,1.890844464E0,-3.200587034E0
1.042483747E2,7.233145833E-1,3.067961633E-1,3.211772442E-1
1.044989546E2,-1.873267531E0,-1.691639900E0,2.598712683E0
1.047497480E2,1.360342741E0,1.293231010E0,-2.284459591E0
1.050011518E2,9.747169614E-1,8.133293986E-1,7.115966678E-1
1.052524946E2,-1.784317970E0,-1.580852509E0,1.279915214E0
1.055032576E2,-5.970807076E-1,2.130528912E-3,-3.515372574E-1
1.057539289E2,1.070590734E0,1.406149119E-1,8.213189244E-1
1.060054853E2,-1.470597625E0,3.089267015E-2,-2.695119083E-1
1.062568586E2,-7.936219871E-2,-1.768339038E0,6.130596995E-1
1.065075605E2,2.352103949E0,6.870955825E-1,-2.094842434E0
1.067585066E2,-1.007207513E0,4.330300093E-1,7.131945491E-1
1.070096052E2,-1.633583069E0,4.687163606E-2,1.192030907E0
1.072603376E2,8.404936790E-1,2.390985966E0,-2.663693666E0
1.075106123E2,-8.841694891E-2,-2.418150306E-1,1.620267272E0
1.077614668E2,-1.252750993E0,-4.692489803E-1,1.414671183E0
1.080127790E2,1.558481932E0,1.994707704E0,-3.281014442E0
1.082635420E2,1.385909081E0,5.198490620E-1,3.733751774E-1
1.085146711E2,-1.630387306E0,-5.773733258E-1,1.856755972E0
1.087657392E2,2.572613657E-1,4.862932265E-1,-9.928264618E-1
1.090166548E2,1.151018262E0,4.436826408E-1,1.258610010E0
1.092679365E2,-2.530003071E0,-3.776362538E-1,1.396029115E0
1.095191877E2,-9.108011127E-1,-3.099919558E-1,-1.821602285E-1
1.097695539E2,2.021872044E0,6.918892860E-1,-2.231729031E-1
1.100205915E2,-1.133441329E0,4.048004746E-2,1.150485575E-1
1.102716291E2,-7.744472623E-1,-9.672601223E-1,2.556634694E-2
1.105226362E2,1.701227307E0,7.643272281E-1,-2.011751890E0
1.107738264E2,-8.484831452E-1,3.515372798E-2,8.809736967E-1
1.110249250E2,-1.257544637E0,-8.772453070E-1,1.139300346E0
1.112759626E2,2.455967188E0,1.507881880E0,-3.602724314E0
1.115270307E2,-1.533980817E-1,8.708537221E-1,6.295713186E-1
1.117778852E2,-9.406285286E-1,-9.022790194E-1,1.348624825E0
1.120291365E2,2.129463673E0,1.103081346E0,-1.760349512E0
1.122802351E2,1.498294473E0,-5.656554103E-1,8.767126203E-1
1.125311201E2,-2.799515009E0,2.886866629E-1,2.449043036E0
1.127822493E2,1.354483724E0,5.294364095E-1,-1.805623293E0
1.130331037E2,1.306546807E0,8.154599667E-1,8.399610519E-1
1.132840193E2,-2.431466103E0,-2.359560728E-1,1.860484362E0
1.135354231E2,4.175836742E-1,-1.151550889E0,-5.347627401E-1
1.137865522E2,1.824265361E0,3.637878001E-1,1.278317347E-2
1.140375593E2,-1.024784446E0,-2.753708661E-1,6.854977012E-1
1.142892378E2,-1.762480021E0,-8.926916122E-1,1.015197039E0
1.145400007E2,2.112951994E0,1.401888013E0,-2.920955181E0
1.147912519E2,-8.522115946E-1,1.603222936E-1,1.086569786E0
1.150424726E2,-1.586711407E0,-1.987783432E0,1.617604017E0
1.152934797E2,1.496163964E0,2.201901674E0,-3.014698505E0
1.155445478E2,2.652508616E-1,3.845604658E-1,1.262338310E-1
1.157959211E2,-1.690042019E0,-1.000815988E0,1.902562261E0
1.160473249E2,1.186704636E0,1.523860812E0,-3.061037302E0
1.162988813E2,1.438107014E0,5.171858668E-1,8.042746782E-1
1.165501326E2,-2.522546291E0,-7.254450917E-1,1.672997832E0
1.168011091E2,-4.793690145E-2,6.013417840E-1,-9.779127836E-1
1.170525129E2,1.166464567E0,4.197141826E-1,9.672601223E-1
1.173033979E2,-1.818939090E0,-1.054079175E0,1.563808203E0
1.175547102E2,-2.625876963E-1,-1.917476058E-1,-3.057309091E-1
1.178057173E2,2.090581417E0,-4.266384244E-1,-3.430151641E-1
1.180562361E2,-8.388957381E-1,3.344930410E-1,1.121190786E0
1.183074873E2,-8.138620257E-1,-3.579288721E-1,-4.511395097E-1
1.185588301E2,1.455683827E0,1.497761846E0,-9.672601223E-1
1.188104170E2,-9.587380290E-1,-6.151902080E-1,9.992180467E-1
1.190610273E2,-1.598429322E0,-7.584682703E-1,1.331580617E-2
1.193118208E2,3.022687912E0,5.028048158E-1,-1.305481553E0
1.195631636E2,7.041398287E-1,1.778991669E-1,7.451524734E-1
1.198139265E2,-7.153250575E-1,-1.237837315E0,9.406285286E-1
1.200651472E2,1.579787135E0,6.924219131E-1,-2.883138180E0
1.203173140E2,2.589657784E0,-3.217098713E-1,1.047687650E0
1.205684126E2,-1.924932837E0,-1.597896684E-3,2.359028101E0
1.208197248E2,-5.486112088E-2,8.602010608E-1,-1.597364068E0
1.210700300E2,2.385127068E0,-1.608549356E-1,5.656554103E-1
1.213219221E2,-3.051450014E0,-1.582983017E0,1.261805773E0
1.215730513E2,-1.414671183E0,-6.210491657E-1,-4.793690145E-1
1.218240278E2,1.407214403E0,6.785734296E-1,7.190535218E-2
1.220744245E2,-1.420530200E0,9.848369956E-1,1.172323585E0
1.223258284E2,-5.060006306E-2,-7.643272281E-1,-2.119876295E-1
1.225772932E2,1.355016351E0,1.197357297E0,-8.522115946E-1
1.228286055E2,-1.044491768E0,1.864212751E-1,1.358744860E0
1.230792463E2,-1.490837574E0,-1.419464946E0,1.782187462E0
1.233308638E2,1.580319762E0,2.394181967E0,-4.280232430E0
1.235821455E2,5.619270205E-1,3.243730366E-1,7.073355913E-1
1.238330915E2,-1.179247737E0,-1.291633129E0,1.629321933E0
1.240843122E2,1.525458694E0,9.731190801E-1,-3.423227310E0
1.243350752E2,1.953162432E0,8.474178910E-1,1.184041500E0
1.245863874E2,-3.096191168E0,-4.159857631E-1,1.707086325E0
1.248380964E2,4.900216311E-2,6.759102941E-1,-1.055677056E0
1.250898664E2,1.249022603E0,9.017463326E-1,5.102616549E-1
1.253409956E2,-3.213370323E0,2.764361203E-1,1.747033715E0
1.255929182E2,-5.278385282E-1,1.725728363E-1,1.613875628E-1
1.258440473E2,1.760349512E0,6.119944453E-1,-2.711097896E-1
1.260945967E2,-7.233145833E-1,-4.468784332E-1,8.516789079E-1
1.263448713E2,-7.329019308E-1,-5.118595958E-1,9.230516553E-1
1.265949629E2,1.741707444E0,1.835450649E0,-4.127899647E0
1.268452070E2,-2.450108230E-1,1.587243974E-1,3.605920076E-1
1.270954512E2,-1.068460226E0,-1.316134214E0,1.594168305E0
1.273456343E2,2.690858126E0,6.002765298E-1,-3.806190014E0
1.275956953E2,7.925567627E-1,3.408846259E-1,4.926848114E-1
1.278459089E2,-1.940911889E0,-5.832322836E-1,1.930259228E0
1.280962141E2,1.343831062E0,4.261057824E-2,-2.890062571E0
1.283463972E2,1.723597884E0,1.162203550E0,7.440872192E-1
1.285966108E2,-3.021622658E0,-4.420847446E-2,2.504436731E0
1.288467634E2,-9.906959534E-1,3.265035450E-1,-8.159925938E-1
1.290970686E2,1.470064968E-1,1.232510924E0,-7.957525253E-1
1.293470686E2,-2.331863880E0,-1.012001187E-2,2.417084932E0
1.295972212E2,-8.250473142E-1,-6.551376581E-1,-7.313040495E-1
1.298489607E2,2.704173803E0,6.162554622E-1,-1.530252337E0
1.301008223E2,-1.149953008E0,1.741707325E-1,1.468466997E0
1.303511342E2,-1.796035886E0,-1.306546807E0,1.861016989E0
1.306011342E2,2.982740402E0,1.266599417E0,-4.661597252E0
1.308512868E2,-4.633900523E-2,6.524744630E-1,-2.625876963E-1
1.311032094E2,-2.327070236E0,-1.061003447E0,1.434378624E0
1.313533925E2,1.847168565E0,2.101234198E0,-3.987284899E0
1.316035451E2,1.732652664E0,1.218662500E0,3.952131271E-1
1.318538503E2,-3.160106897E0,-6.119944453E-1,3.652259111E0
1.321040944E2,-4.905542731E-1,1.928128600E-1,-1.442900658E0
1.323543386E2,7.707188129E-1,1.975000262E0,-7.691209316E-1
1.326045827E2,-2.184324741E0,-7.307714224E-1,2.996588945E0
1.328546743E2,-2.488990307E0,-1.651159972E-1,1.166464612E-1
1.331047658E2,2.265817404E0,-7.499461770E-1,-7.099987864E-1
1.333550405E2,-1.045024395E0,-1.012001187E-2,1.464738607E0
1.336069326E2,-9.182579517E-1,-7.265103459E-1,2.066612959E0
1.338570546E2,4.104464054E0,2.679139972E-1,-3.850930929E0
1.341074209E2,-9.704559445E-1,3.680488765E-1,8.367652297E-1
1.343592214E2,-1.775263190E0,-6.743124127E-1,1.517469168E0
1.346092214E2,2.017078161E0,1.282045722E0,-3.707653046E0
1.348594655E2,1.668204188E0,2.716424465E-1,-9.214537591E-2
1.351096181E2,-1.603755593E0,5.603290796E-1,2.675411701E0
1.353598928E2,1.192563534E0,2.892192900E-1,-1.956358194E0
1.356101064E2,1.336906910E0,7.520766854E-1,1.150485575E-1
1.358619375E2,-2.357430220E0,-1.524393439E0,1.988316059E0
1.361122121E2,-6.167881489E-1,-3.856257200E-1,-7.025418878E-1
1.363623647E2,8.703210354E-1,7.254450917E-1,3.424825370E-1
1.366125478E2,-1.888713837E0,6.508765817E-1,1.723065257E0
1.368628530E2,8.096009493E-2,-8.735168725E-2,-7.057377100E-1
1.371132192E2,1.598961949E0,-6.764429063E-2,-1.518534541E0
1.373632497E2,-1.086569786E0,-2.183792181E-2,1.812547445E0
1.376134939E2,-1.622397780E0,-8.096010089E-1,-9.906959534E-2
1.378635549E2,9.315737486E-1,2.314286947E0,-3.358778715E0
1.381136159E2,-4.298342168E-1,8.165252209E-1,9.092032313E-1
1.383637685E2,-1.873800159E0,-1.581385136E0,1.557416677E0
1.386138296E2,1.629854590E-1,2.843723536E0,-3.045058489E0
1.388641347E2,7.760451436E-1,4.506068528E-1,-7.776430249E-2
1.391141958E2,-3.273025036E0,-5.906891227E-1,2.142246723E0
1.393645315E2,1.423725963E0,1.703890443E0,-1.906823397E0
1.396149892E2,2.199238539E0,1.368864775E-1,-8.042746782E-2
1.398650503E2,-1.180312991E0,-1.683650494E0,3.195793390E0
1.401150503E2,-8.404936790E-1,3.025351167E-1,-6.205165386E-1
1.403652944E2,1.256479383E0,1.104679227E0,-4.138552547E-1
1.406156606E2,-1.634648323E0,1.355016351E0,1.910551786E0
1.408657522E2,-5.118595958E-1,-9.443569183E-1,-4.058657587E-1
1.411159658E2,1.088167667E0,1.048220277E0,-1.605886221E0
1.413661184E2,-9.725864530E-1,-6.455502510E-1,1.315068960E0
1.416163930E2,-1.317199469E0,-1.511610270E0,1.260207891E0
1.418668203E2,2.520415783E0,2.323874474E0,-2.786731720E0
1.421170949E2,-3.392867148E-1,1.065264456E-2,5.928196907E-1
1.423690481E2,-2.495914698E0,-1.145159245E0,1.734250546E0
1.426192006E2,2.183259487E0,1.726793647E0,-2.402704000E0
1.428693532E2,1.103081346E0,1.177117229E-1,-9.108011425E-2
1.431213064E2,-1.025317073E0,-1.062601328E0,2.468750477E0
1.433714895E2,1.611212492E0,1.108407617E0,-1.741174698E0
1.436215810E2,2.046905756E0,2.375539690E-1,-2.024002522E-1
1.438717031E2,-3.225620747E0,-9.129316211E-1,3.089799643E0
1.441219777E2,-8.793758154E-1,-2.343581766E-1,2.956108749E-1
1.443721914E2,2.275937557E0,1.901497096E-1,-1.563808203E0
1.446222524E2,-8.303736448E-1,1.138235092E0,8.202536106E-1
1.448723745E2,-1.352885842E0,-6.231797338E-1,4.229099751E-1
1.451225576E2,1.884452820E0,1.979261398E0,-2.523611546E0
1.453727407E2,-8.697884083E-1,1.316666842E0,-2.721750736E-1
1.456231374E2,4.165183902E-1,-5.502091050E-1,1.319862604E0
1.458750905E2,1.264468908E0,8.372978568E-1,-1.677258849E0
1.461254846E2,-4.633900523E-2,6.519418359E-1,3.701793849E-1
1.463767969E2,7.190535218E-2,-5.502091050E-1,3.105778456E0
1.466272241E2,1.385909081E0,3.147856593E-1,-2.406965017E0
1.468774378E2,1.199487805E0,7.408914566E-1,1.555286050E-1
1.471289942E2,-2.157693148E0,-5.102616549E-1,2.930009842E0
1.473803064E2,-1.066862345E0,2.482066154E-1,-5.747101903E-1
1.476307337E2,1.639974594E0,5.539374948E-1,-8.532768488E-1
1.478818628E2,-2.008023560E-1,-6.306365728E-1,8.069378138E-1
1.481321680E2,-1.487641811E0,-2.210423797E-1,6.727145314E-1
1.483826868E2,5.613943934E-1,1.072721362E0,-1.105744481E0
1.486333277E2,-5.033374429E-1,-6.700513363E-1,9.225190282E-1
1.488838159E2,-9.869675040E-1,-2.572081089E0,3.013633251E0
1.491338770E2,1.574993491E0,1.720934749E0,-4.135889053E0
1.493840906E2,5.012069345E-1,3.408846259E-2,-2.242381722E-1
1.496341211E2,-2.740392923E0,-5.651227832E-1,3.146791220E0
1.498841211E2,1.852494836E0,2.331331253E0,-3.754524469E0
1.501345484E2,1.974467635E0,8.522115648E-2,1.076982379E0
1.503846094E2,-2.921487808E0,3.510046303E-1,2.556634665E0
1.506348841E2,-4.793690145E-2,-1.725728363E-1,-5.906891227E-1
1.508849451E2,1.507881880E0,5.922870636E-1,-2.620550692E-1
1.511350061E2,-1.973935008E0,2.471413612E-1,1.679389358E0
1.513869677E2,-1.394431114E0,-6.263754964E-1,-7.989483327E-2
1.516369983E2,7.446198463E-1,1.133441329E0,-1.711347342E0
1.518873340E2,-5.336974859E-1,2.077265680E-1,1.167529821E0
1.521375476E2,-2.038383484E0,-1.244228840E0,1.096157074E0
1.523876391E2,1.000815988E0,2.488990307E0,-2.900182486E0
1.526377002E2,1.472195506E0,7.099987864E-1,1.379517466E-1
1.528877612E2,-2.279665947E0,2.657834888E-1,1.399224877E0
1.531378528E2,2.263686895E0,1.299622655E0,-2.204032183E0
1.533880969E2,1.278317332E0,2.572613657E-1,6.412891746E-1
1.536381579E2,-2.294579744E0,-1.323591113E0,2.837864399E0
1.538883715E2,-1.815210581E0,-1.363538504E-1,-1.651159972E-1
1.541384936E2,2.456499815E0,3.898867965E-1,-4.016047120E-1
1.543884936E2,-1.078047633E0,5.768406987E-1,8.836368918E-1
1.546385241E2,-1.300687909E0,-4.649879336E-1,-4.841626883E-1
1.548888598E2,1.736913681E0,1.563275576E0,-1.810949564E0
1.551391040E2,-6.455502510E-1,3.067961633E-1,1.097222447E0
1.553893176E2,-1.478054404E0,-1.661812544E0,9.901633263E-1
1.556393481E2,3.691673994E0,8.245146871E-1,-3.844006777E0
1.558895923E2,-7.190535218E-2,1.821602285E-1,5.060006306E-2
1.561397143E2,-1.918541312E0,-7.856325507E-1,1.208542466E0
1.563900500E2,-1.038632840E-1,1.618669391E0,-2.004295111E0
1.566403857E2,1.981924534E0,5.432848632E-2,1.278317273E-1
1.568905993E2,-3.324157715E0,1.024251819E0,2.638127327E0
1.571409045E2,1.679389358E0,8.351673484E-1,-2.494849443E0
1.573911792E2,6.519418359E-1,6.828345060E-1,8.319715261E-1
1.576430713E2,-1.099885583E0,-3.026948929E0,2.319080830E0
1.578931323E2,-6.620618701E-1,8.847021461E-1,-1.105744481E0
1.581434680E2,4.452805519E-1,1.355016351E0,3.142530024E-1
1.583936816E2,-2.588592768E-1,-1.276186824E0,5.944175720E-1
1.586441394E2,-4.601942301E-1,2.130528912E-2,-1.597896665E-1
1.588942004E2,2.847984552E0,-1.262338310E-1,-2.039981484E-1
1.591445056E2,-7.430219650E-1,-2.338255495E-1,9.880327582E-1
1.593947802E2,-1.879126549E0,-1.231978297E0,4.799016416E-1
1.596449939E2,3.539873838E0,-7.259777188E-1,-1.830124378E0
1.598951159E2,4.761732221E-1,-8.096009493E-2,-1.198422536E-1
1.601452075E2,-2.048503637E0,3.510046303E-1,2.051166773E0
1.603952685E2,2.225337505E0,1.587244034E0,-3.453587294E0
1.606454516E2,1.384843826E0,4.852279723E-1,-7.616640627E-2
1.608955419E2,-2.605636835E0,-7.382282615E-1,4.021905899E0
1.611456639E2,2.423476577E-1,7.158577442E-1,-8.586031795E-1
1.613957860E2,1.018392801E0,6.460828781E-1,-2.231729031E-1
1.616458165E2,-3.204315424E0,1.577656627E0,2.477805138E0
1.618961827E2,-9.422264099E-1,-9.843043685E-1,-3.142530099E-2
1.621466100E2,2.870355129E0,5.805691332E-2,-8.772453070E-1
1.623980748E2,-1.152616143E0,-2.290318534E-2,1.487641811E0
1.626493566E2,-1.622930408E0,-1.211205721E0,1.071123362E0
1.629006383E2,2.422944069E0,1.799764276E0,-3.946804762E0
1.631515843E2,-1.496696621E-1,9.432916641E-1,6.567355394E-1
1.634027135E2,-1.578189254E0,-1.083906531E0,1.869539142E0
1.636539037E2,7.222493291E-1,2.141714096E0,-4.081560612E0
1.639048497E2,1.546231389E0,8.628641814E-2,-1.257012039E-1
1.641554601E2,-2.727609634E0,-1.416801661E-1,3.050917387E0
1.644069249E2,8.820389509E-1,2.439455539E-1,-2.730805397E0
1.646580541E2,1.920671821E0,9.992180467E-1,5.310343504E-1
1.649094884E2,-2.797384501E0,-1.187237263E0,2.286590099E0
1.651610448E2,-1.437041759E0,3.041329980E-1,-1.731054783E-1
1.654122960E2,2.045307636E0,1.422128081E0,-8.767126203E-1
1.656636388E2,-1.530784965E0,2.908172011E-1,1.762480021E0
1.659143407E2,-1.494566083E0,-9.523464441E-1,1.651159972E-1
1.661655919E2,2.307362795E0,1.136104584E0,-2.344114542E0
1.664162023E2,-1.588841915E0,1.017327532E-1,1.106277108E0
1.666672399E2,-2.412823915E0,-1.244228840E0,1.662345171E0
1.669173009E2,2.950782537E0,1.372060657E0,-4.697816372E0
1.671683080E2,8.080030680E-1,5.336974859E-1,1.241033077E-1
1.674201085E2,-1.229847789E0,-7.510114312E-1,2.640790701E0
1.676716344E2,3.094593287E-1,1.333711147E0,-3.594734907E0
1.679231298E2,2.216815233E0,7.105314136E-1,4.825648069E-1
1.681738927E2,-2.323874474E0,-1.688444167E-1,2.356897593E0
1.684257543E2,8.048073053E-1,1.757686287E-1,-1.296426892E0
1.686768834E2,1.028512836E0,1.071655989E0,3.952131271E-1
1.689281041E2,-2.694586515E0,3.408846259E-2,2.791525602E0
1.691792943E2,-1.567003965E0,-9.347695708E-1,1.219727769E-1
1.694305150E2,3.023220539E0,7.462177277E-1,-1.144093990E0
1.696813390E2,-1.141963482E0,-3.494067490E-1,7.137271762E-1
1.699324376E2,-1.783252716E0,-5.949501991E-1,1.332113147E0
1.701837804E2,1.963814974E0,2.488457680E0,-4.976915359E0
1.704350926E2,5.305017233E-1,6.737797856E-1,3.888215125E-1
1.706864354E2,-1.440237522E0,-7.861651778E-1,1.245294094E0
1.709379918E2,1.580319762E0,1.388572216E0,-3.387541056E0
1.711893041E2,1.528654456E0,2.588592768E-1,8.261125684E-1
1.714403417E2,-2.196042776E0,4.687163532E-1,2.596582174E0
1.716916539E2,7.243798673E-2,1.704423130E-2,-1.631452560E0
1.719436070E2,1.149953008E0,6.775081754E-1,8.591358066E-1
1.721948583E2,-2.253034353E0,-1.083906531E0,1.816275954E0
1.724459264E2,-8.335694075E-1,-1.677791476E-1,-4.846953228E-2
1.726970860E2,1.880191803E0,7.808388472E-1,-5.608617067E-1
1.729476354E2,-1.331580520E0,8.202536106E-1,9.076052904E-1
1.731986424E2,-6.567355394E-1,-1.781122208E0,6.476807594E-1
1.734495580E2,1.998436093E0,1.669269443E0,-2.706304312E0
1.737007482E2,-9.331716895E-1,4.095941782E-1,1.264468908E0
1.739520299E2,-1.629854560E0,-9.512811303E-1,1.257012010E0
1.742031285E2,1.067394972E0,1.642105103E0,-2.778742313E0
1.744542577E2,1.853560209E0,-1.475391239E-1,1.257012039E-1
1.747058446E2,-2.279665947E0,6.364955306E-1,2.649845362E0
1.749572484E2,1.136637211E0,3.419498801E-1,-2.265284777E0
1.752085912E2,1.922269702E0,9.214537740E-1,-1.196292043E0
1.754593236E2,-2.167280436E0,-2.455967188E0,4.162520885E0
1.757105138E2,-1.179780364E0,8.681905270E-2,3.824299276E-1
1.759619481E2,6.700513363E-1,1.096157074E0,-1.594700933E0
1.762131383E2,-6.801713705E-1,-6.189186573E-1,1.830657005E0
1.764642980E2,-1.847168565E0,-1.009338021E0,4.644553065E-1
1.767151830E2,1.536643982E0,7.009440064E-1,-2.792058229E0
1.769664342E2,-9.741843343E-1,-1.406149119E-1,1.551557660E0
1.772174108E2,-1.247424722E0,-8.170578480E-1,1.689509392E0
1.774688451E2,1.277252078E0,1.114799261E0,-4.012851238E0
1.777202489E2,9.129316211E-1,-1.235706806E-1,-1.981391907E-1
1.779714696E2,1.390170157E-1,-1.072721362E0,3.824831963E0
1.782229039E2,1.283643693E-1,2.425074577E0,-2.691923380E0
1.784742162E2,1.905758142E0,9.006810784E-1,-6.231797338E-1
1.787247045E2,-1.088167667E0,6.881608367E-1,2.677542210E0
1.789759557E2,-4.942827225E-1,1.014664412E0,-1.128115058E0
1.792265965E2,2.145442724E0,8.628641963E-1,-7.616640627E-2
1.794777867E2,-2.860767603E0,-1.928661346E0,4.404335976E0
1.797286107E2,-1.259142637E0,-5.864281058E-1,-5.486112237E-1
1.799802587E2,2.240783691E0,1.840776920E0,-1.694835782E0
1.802318456E2,-1.520132422E0,2.711097896E-1,1.291633129E0
1.804829137E2,-1.679922104E0,-1.537176609E0,1.024784446E0
1.807340123E2,2.998186827E0,1.038632870E0,-4.679706573E0
1.809845922E2,-3.973436356E-1,3.685815036E-1,3.771036267E-1
1.812355687E2,-2.010686636E0,-1.146224499E0,1.865810752E0
1.814861485E2,1.613343000E0,1.731587410E0,-4.283428192E0
1.817376439E2,8.926916122E-1,6.636597514E-1,2.487392575E-1
1.819878881E2,-2.608832598E0,5.901564956E-1,2.582733631E0
1.822392919E2,3.211772442E-1,1.040230751E0,-2.892725706E0
1.824908483E2,2.221609116E0,5.842975378E-1,9.161274135E-2
1.827427098E2,-1.532382965E0,-2.047971010E0,4.435228348E0
1.829938390E2,-6.759102941E-1,3.360909224E-1,1.422128081E-1
1.832454869E2,1.368332148E0,1.824797988E0,-1.529187083E0
1.834970433E2,-1.314003706E0,-4.894890189E-1,3.186738729E0
1.837479283E2,-6.045376062E-1,-2.008023560E-1,-5.826996565E-1
1.839998509E2,1.288969994E0,7.685883045E-1,-8.623315692E-1
1.842511022E2,-5.571333170E-1,5.752427876E-2,2.581135750E0
1.845028111E2,-1.102548718E0,-1.141963482E0,7.930893898E-1
1.847537572E2,2.797917128E0,1.841309667E0,-4.624312878E0
1.850049474E2,-7.147924304E-1,6.966829300E-1,1.223988891E0
1.852560765E2,-1.780056953E0,-8.010788560E-1,1.794970632E0
1.855070226E2,2.409095526E0,6.609966159E-1,-4.332962990E0
1.857588231E2,8.016114831E-1,3.973436356E-1,1.555818796E0
1.860107762E2,-2.546514750E0,1.047687650E0,5.507417321E-1
1.862616226E2,7.861651778E-1,1.004544377E0,-2.833070755E0
1.865117833E2,2.573146343E0,-3.009372056E-1,9.747169912E-2
1.867626378E2,-2.316950083E0,-2.167813182E-1,3.904194117E0
1.870144383E2,-6.823018789E-1,6.327670813E-1,-6.418218613E-1
1.872658727E2,1.241565704E0,1.564873457E0,-1.080710769E0
1.875160863E2,-1.890844464E0,4.628573954E-1,3.342267275E0
1.877676732E2,-1.458879709E0,-5.075985193E-1,-4.878911078E-1
1.880186803E2,2.090048790E0,3.547330499E-1,-3.218696594E0
1.882694432E2,-8.218515515E-1,-3.259709179E-1,2.235990047E0
1.885206029E2,-2.541188478E0,-1.451955438E0,-1.070590764E-1
1.887720983E2,3.112170219E0,1.543568254E0,-4.042146206E0
1.890238683E2,1.653290391E0,1.225054078E-2,1.006674916E-1
1.892752721E2,-2.355832338E0,-1.970739216E-1,8.463526368E-1
1.895256383E2,1.648496747E0,6.823018789E-1,-2.748382330E0
1.897759435E2,3.744404554E0,2.556634694E-2,1.848233789E-1
1.900271337E2,-6.237123609E-1,7.510114461E-2,4.986503124E0
1.902779576E2,6.242449880E-1,2.833603323E-1,-1.555818796E0
1.905289037E2,1.539839745E0,8.761799932E-1,-9.028116465E-1
1.907794225E2,-3.269296646E0,2.993393242E-1,3.382214546E0
1.910307347E2,-1.314003706E0,-1.152616143E0,-8.484831452E-1
1.912819860E2,1.755555868E0,3.850930929E-1,-1.599494576E0
1.915324437E2,-8.026767969E-1,2.450108156E-2,1.209075212E0
1.917838978E2,-1.397094369E0,-1.406681657E0,-6.924218964E-3
1.920353627E2,2.163552046E0,2.114549875E0,-4.466653824E0
1.922871327E2,-1.326254308E-1,1.842907518E-1,1.483380795E0
1.925384755E2,-2.575809479E0,-1.181378245E0,1.574460864E0
1.927901539E2,2.014415026E0,2.138518333E0,-3.503122091E0
1.930420155E2,1.180312991E0,7.760451436E-1,1.006674916E-1
1.932927784E2,-1.026914954E0,-4.042678475E-1,2.743056059E0
1.935443959E2,4.569984376E-1,2.002697140E-1,-2.058623552E0
1.937958607E2,2.231196404E0,-1.518001854E-1,5.150553584E-1
1.940459828E2,-2.419748306E0,-2.085255146E0,3.103647947E0
1.942971730E2,-1.153681397E0,-2.434129268E-1,-1.917476058E-1
1.945487599E2,1.265001535E0,1.231978297E0,-1.363005877E0
1.948000721E2,-1.233043551E0,5.986786485E-1,1.995240331E0
1.950504994E2,-5.368933082E-1,-1.193628788E0,2.077265643E-2
1.953016896E2,3.209641695E0,4.026699662E-1,-2.832005501E0
1.955527577E2,-4.681837261E-1,-1.858886480E-1,1.393365860E0
1.958032460E2,-2.078863621E0,-1.795503259E0,1.293763638E0
1.960543446E2,3.579821110E0,1.122256160E0,-3.338006258E0
1.963060536E2,5.352953672E-1,1.065797091E0,8.463526368E-1
1.965576405E2,-3.003513098E0,-3.382214606E-1,1.432248116E0
1.968088002E2,1.423725963E0,1.631452560E0,-2.099103689E0
1.970598378E2,2.360093355E0,-4.932174385E-1,-1.182443574E-1
1.973107228E2,-2.627474785E0,1.204814076E0,2.788329601E0
1.975624318E2,3.584614992E-1,-1.592570394E-1,-1.236772060E0
1.978134388E2,1.589907169E0,2.290318608E-1,-3.728425503E-1
1.980638356E2,-2.807504416E0,-7.600662112E-1,3.478088379E0
1.983153309E2,-4.410194755E-1,-3.382214606E-1,-2.593919039E-1
1.985665821E2,1.378452182E0,1.691107273E0,-1.513208151E0
1.988177113E2,-7.334345579E-1,-5.070658922E-1,1.368332148E0
1.990691151E2,-5.869607329E-1,-1.695901036E0,4.948153496E-1
1.993195729E2,2.781405449E0,1.103081346E0,-3.558516026E0
1.995711293E2,-5.544701219E-1,-5.113269389E-2,1.903627634E0
1.998223500E2,-1.505218625E0,-2.051699400E0,3.488741219E-1
2.000724110E2,9.677927494E-1,2.862898111E0,-3.398726225E0
2.003231739E2,1.283643723E0,1.118527651E-1,-2.822950780E-1
2.005746998E2,-2.255697489E0,-1.917476058E-1,3.210707188E0
2.008261341E2,6.396912932E-1,2.215750068E-1,-1.811482191E0
2.010772328E2,1.906823397E0,9.049421549E-1,-4.628573954E-1
2.013277190E2,-2.560363054E0,-1.334776402E0,3.299124002E0
2.015791533E2,-1.620267272E0,6.082659960E-1,-1.544633508E-1
2.018298857E2,6.167881489E-1,1.054611802E0,-1.623995662E0
2.020814421E2,-1.082841277E0,-5.411543250E-1,1.525991321E0
2.023327849E2,-1.130778193E0,-1.261805773E0,7.776430249E-1
2.025836699E2,2.996588945E0,1.700162053E0,-4.206196785E0
2.028349211E2,-4.303668439E-1,1.177649856E0,4.862932265E-1
2.030864775E2,-7.627293468E-1,-1.598429322E0,1.777926326E0
2.033380644E2,-6.636597514E-1,2.719620228E0,-4.520449638E0
2.035889800E2,8.356999755E-1,6.061354876E-1,1.342233270E-1
2.038399260E2,-1.279382586E0,-1.874865443E-1,1.910551786E0
2.040912383E2,6.913566589E-1,4.159857631E-1,-2.070874214E0
2.043415740E2,1.155811906E0,3.424825370E-1,7.131945491E-1
2.045931303E2,-1.634115696E0,-2.254099607E0,3.589408636E0
2.048444731E2,-1.004544377E0,2.657834888E-1,-7.616640627E-2
2.050962737E2,4.719121456E-1,1.728924155E0,-1.255414128E0
2.053472502E2,-1.827993751E0,1.227717280E0,1.555818796E0
2.055989897E2,-1.085504532E0,-1.180845618E0,-3.733751774E-1
2.058496611E2,3.066896439E0,1.104146600E0,-2.037318230E0
2.061009428E2,-6.380934119E-1,3.728425503E-2,1.031708598E0
2.063515837E2,-8.250473142E-1,-1.373125911E0,1.375256419E0
2.066032011E2,3.006708860E0,-3.328951299E-1,-1.921737075E0
2.068547881E2,2.380866110E-1,9.970875382E-1,5.704491138E-1
2.071069243E2,-3.663977146E0,-3.573962152E-1,8.937568665E-1
2.073579314E2,2.204564810E0,2.336657524E0,-2.039448738E0
2.076090910E2,6.908239722E-1,7.989483476E-1,5.800365210E-1
2.078603728E2,-1.201085687E0,-3.502056837E0,3.866377354E0
2.081114104E2,-6.924219131E-1,2.579537868E0,-1.993109822E0
2.083628142E2,1.737446308E0,-2.503371537E-1,9.134642482E-1
2.086138823E2,-3.469033718E0,-1.869539171E-1,3.129214287E0
2.088648644E2,-4.495415986E-1,-2.961435318E-1,-3.877562582E-1
2.091160546E2,1.818939090E0,4.308994710E-1,-1.357679605E0
2.093670006E2,-5.672533512E-1,4.777711034E-1,1.536643982E0
2.096183434E2,-1.667671561E0,-1.419997573E0,3.419498801E-1
2.098696251E2,3.397128344E0,1.123321414E0,-3.385943174E0
2.101208458E2,1.443433315E-1,8.623315692E-1,9.400959015E-1
2.103718529E2,-2.838397026E0,-8.516789079E-1,1.433845997E0
2.106227990E2,9.118663669E-1,1.818406463E0,-3.983556509E0
2.108744774E2,1.366201639E0,4.346278906E-1,-7.723167539E-2
2.111259728E2,-1.696433663E0,-3.733751774E-1,2.657302141E0
2.113764916E2,1.143561363E0,4.436826408E-1,-2.653573751E0
2.116281701E2,1.601092458E0,-1.906823367E-1,9.614011645E-1
2.118794823E2,-2.105495214E0,-1.550492406E0,2.480468273E0
2.121300622E2,-4.953479767E-1,-1.187769845E-1,-5.262406468E-1
2.123813439E2,1.227184653E0,1.197889924E0,-1.018392801E0
2.126321679E2,-1.437041759E0,6.103965044E-1,1.613343000E0
2.128832055E2,-7.424893379E-1,-1.407747030E0,2.332929224E-1
2.131348839E2,2.784601212E0,1.955825567E0,-4.356931686E0
2.133861046E2,-3.685815036E-1,3.371562064E-1,1.319329977E0
2.136378136E2,-1.919073939E0,-7.355651259E-1,6.801713705E-1
2.138890954E2,1.976065636E-1,2.149171114E0,-3.069559574E0
2.141408959E2,1.070058107E0,6.434197426E-1,-2.364887148E-1
2.143924828E2,-2.433063984E0,2.940129936E-1,1.529187083E0
2.146435509E2,8.282431364E-1,9.171926975E-1,-1.876995921E0
2.148939477E2,1.841309667E0,3.994741738E-1,1.528654546E-1
2.151451073E2,-2.128398418E0,-1.328917384E0,3.746002436E0
2.153955956E2,-1.102016091E0,-2.354234457E-1,-1.491370201E-1
2.156456872E2,1.908421278E0,1.401355386E0,-1.057807565E0
2.158967553E2,-1.304416299E0,6.151902080E-1,1.211205721E0
2.161477929E2,-1.247424722E0,-1.246359468E0,3.739078343E-1
2.163989525E2,2.709500074E0,1.153148770E0,-3.796069860E0
2.166502648E2,2.146507949E-1,3.797667921E-1,1.474858642E0
2.169012719E2,-2.236522675E0,-5.097290277E-1,1.377386928E0
2.171524010E2,3.025351167E-1,2.120409012E0,-4.276504040E0
2.174036828E2,1.827461123E0,2.705771625E-1,2.141181529E-1
2.176550866E2,-1.501490235E0,5.805691332E-2,2.916161537E0
2.179063073E2,3.249056637E-2,4.511395097E-1,-8.394283652E-1
2.181572533E2,1.965412974E0,6.194512844E-1,-9.454222322E-1
2.184083214E2,-2.741458178E0,-6.982808709E-1,4.718588829E0
2.186593895E2,-1.970739290E-2,-4.404868484E-1,-1.416801661E-1
2.189105492E2,1.758219004E0,1.572330356E0,-2.172074318E0
2.191618310E2,-1.103613973E0,7.243798673E-2,1.971804500E0
2.194132348E2,-1.263403654E0,-1.304948926E0,5.779059529E-1
2.196645775E2,2.050634146E0,1.854625463E0,-4.946555614E0
2.199157982E2,-8.085356951E-1,4.010720551E-1,1.366201639E0
2.201671715E2,-9.017463326E-1,-1.607484102E0,1.047687650E0
2.204183312E2,8.980179429E-1,1.604820848E0,-3.329483986E0
2.206694603E2,1.491902828E0,6.391586363E-2,7.158577442E-1
2.209207116E2,-2.901247740E0,4.213120937E-1,2.566754818E0
2.211719323E2,7.936219871E-2,1.127049804E0,-1.493500710E0
2.214231835E2,1.726261020E0,1.319862604E0,-4.474110901E-2
2.216744958E2,-2.864496231E0,-3.829625845E-1,3.978762627E0
2.219254113E2,-9.161274135E-2,-4.026699662E-1,1.331580617E-2
2.221767541E2,1.556351423E0,5.768406987E-1,-2.297242880E0
2.224282407E2,-8.639294505E-1,5.805691332E-2,1.843972802E0
2.226794919E2,-1.195226669E0,-1.139300346E0,3.030677438E-1
2.229309262E2,2.438390255E0,1.294828892E0,-4.679173946E0
2.231822385E2,8.729842305E-1,8.420915604E-1,8.250473142E-1
2.234330930E2,-1.872202277E0,-5.374259353E-1,1.355016351E0
2.236840390E2,1.520132422E0,1.455683827E0,-3.375290394E0
2.239353208E2,2.088450909E0,8.117315173E-1,-2.077265643E-2
2.241866635E2,-2.969957352E0,4.996090233E-1,2.674879074E0
2.244376096E2,3.435477912E-1,4.841626883E-1,-1.148355126E0
2.246889524E2,2.182194233E0,7.989483327E-2,-1.970739290E-2
2.249401731E2,-2.628007412E0,-7.930893898E-1,2.935336113E0
2.251916074E2,-1.045024395E0,-5.832322836E-1,-1.928128600E-1
2.254426145E2,1.783252716E0,1.258077264E0,-1.754490614E0
2.256937741E2,-1.417334318E0,4.985437691E-1,1.985652924E0
2.259449338E2,-1.473260760E0,-6.109291911E-1,2.631203234E-1
2.261959714E2,2.168345690E0,1.601092458E0,-4.163586140E0
2.264470090E2,-1.576591432E-1,1.249555230E0,1.059405446E0
2.266987485E2,-2.043709755E0,-1.231978297E0,1.624528289E0
2.269498471E2,1.039165497E0,1.610679865E0,-3.473827362E0
2.272007627E2,1.352353215E0,6.391586661E-1,1.917476021E-2
2.274521970E2,-2.223206997E0,-2.625876963E-1,2.278068066E0
2.277033261E2,6.982808709E-1,1.283111095E0,-2.434661865E0
2.279545163E2,1.870604396E0,-3.083940744E-1,5.305017233E-1
2.282055539E2,-2.238653183E0,-1.215999365E0,3.805124521E0
2.284570493E2,-8.873652816E-1,-3.659183383E-1,-1.017327532E-1
2.287083310E2,1.154746652E0,1.124919295E0,-1.693770528E0
2.289595822E2,-1.119592905E0,6.775081754E-1,1.969673991E0
2.292108335E2,-8.575378656E-1,-1.281513095E0,7.765777707E-1
2.294619931E2,2.837864399E0,1.690574646E0,-4.009655476E0
2.297131833E2,-6.492787004E-1,1.415203810E0,7.531419992E-1
2.299644651E2,-1.691107273E0,-1.454085946E0,1.908421278E0
2.302152585E2,1.203216195E0,2.724413872E0,-4.020840645E0
2.304664182E2,1.218662500E0,6.024070382E-1,9.480853379E-2
2.307175779E2,-1.603755593E0,-4.852279723E-1,2.500708342E0
2.309687375E2,-9.214537591E-2,5.038700700E-1,-1.280980468E0
2.312199277E2,1.545698762E0,8.681905270E-2,3.675162420E-2
2.314711789E2,-1.488707066E0,-2.254099607E0,3.814712048E0
2.317220639E2,-1.348624825E0,-3.360909224E-1,4.048004746E-2
2.319732541E2,1.608549356E0,7.760451436E-1,-8.703210354E-1
2.322241697E2,-6.716492176E-1,2.636529505E-1,1.479652286E0
2.324750852E2,-1.041828632E0,-1.312938452E0,-1.432780623E-1
2.327266416E2,1.912149668E0,1.088700294E0,-3.476490498E0
2.329777707E2,-3.776362538E-1,-6.711166352E-2,1.309210062E0
2.332285337E2,-2.127865791E0,-9.629990458E-1,1.189900398E0
2.334798764E2,2.633333683E0,2.290318489E0,-3.846669912E0
2.337310666E2,4.362258017E-1,6.801713705E-1,7.339671850E-1
2.339822263E2,-1.459944963E0,-7.190535218E-2,1.520665050E0
2.342334165E2,6.141249537E-1,1.602690339E0,-3.086603880E0
2.344845456E2,1.314003706E0,3.653857112E-1,4.271710515E-1
2.347351865E2,-2.972620487E0,5.858954508E-3,2.820820332E0
2.349865293E2,-6.817692518E-2,1.688444167E-1,-7.835019827E-1
2.352383298E2,1.321993232E0,1.591505051E0,8.506136537E-1
2.354896115E2,-2.641855955E0,-1.360875368E0,2.972087860E0
2.357408322E2,-1.020523310E0,-1.014664412E0,1.715075821E-1
2.359916257E2,1.864212751E-1,2.725479126E0,-1.798699021E0
2.362431211E2,-2.407497615E-1,7.350324839E-2,4.585963488E-1
2.364947385E2,-8.309062719E-1,-9.443569183E-1,3.739078343E-1
2.367462033E2,1.037034988E0,2.987001419E0,-1.061536074E0
2.369976987E2,-4.601942301E-1,-8.740494847E-1,4.250405133E-1
2.372494077E2,-1.312938452E0,-5.273059011E-1,-4.048004746E-2
2.375002622E2,2.113484621E0,1.455151200E0,-6.908239722E-1
2.377512387E2,-1.065264456E-3,1.130245566E0,2.870887816E-1
2.380025510E2,-2.540655613E0,-1.621332526E0,2.495914698E0
2.382538022E2,1.853560209E0,2.260491133E0,-2.435727119E0
2.385050840E2,1.770469546E0,-2.977414131E-1,2.663161233E-2
2.387561826E2,-2.337190151E0,-4.458131790E-1,3.132410049E0
2.390072507E2,2.082591951E-1,-1.704423130E-1,-9.853696227E-1
2.392584104E2,9.603359103E-1,8.122641444E-1,-5.555354357E-1
2.395093869E2,-2.065015078E0,8.197209835E-1,2.502838850E0
2.397605466E2,-6.189186573E-1,-6.988134980E-1,-3.637878001E-1
2.400114316E2,2.527872562E0,1.523328125E-1,-2.489522934E0
2.402624082E2,-6.689860821E-1,-4.378236830E-1,2.167813063E0
2.405134458E2,-2.177400589E0,-8.048073053E-1,9.081379771E-1
2.407646054E2,1.794438004E0,2.011219263E0,-4.135889053E0
2.410157956E2,1.814677954E0,1.008805394E0,1.310275316E0
2.412671079E2,-1.518001795E0,-2.886866629E-1,1.682052612E0
2.415180234E2,1.863147497E0,8.756473660E-1,-3.177151203E0
2.417690000E2,2.230131149E0,2.135855258E-1,2.663161159E-1
2.420200986E2,-2.507099867E0,-3.877562582E-1,2.730805397E0
2.422709836E2,-6.338323653E-2,-5.049353242E-1,-6.370281577E-1
2.425219907E2,9.086706042E-1,1.532382965E0,-9.539443254E-1
2.427730588E2,-2.410693407E0,1.981391907E-1,3.712979317E0
2.430242490E2,-1.163268805E0,-3.494067490E-1,-1.720402092E-1
2.432753476E2,3.522296906E0,-3.169161677E-1,-2.420280933E0
2.435263852E2,-1.071655989E0,-3.520699143E-1,2.396845102E0
2.437776059E2,-2.598712683E0,-8.341020942E-1,5.667206645E-1
2.440286435E2,1.632517815E0,1.970206618E0,-5.846704006E0
2.442797727E2,-2.556634694E-2,9.326390028E-1,7.222493291E-1
2.445308713E2,-1.944107652E0,-2.657834888E-1,1.523860812E0
2.447817868E2,1.237304688E0,1.602157712E0,-4.044276714E0
2.450330075E2,1.292165756E0,4.426173866E-1,5.816344023E-1
2.452839841E2,-2.102832079E0,1.342233270E-1,2.681270599E0
2.455353879E2,8.255799860E-2,7.717841268E-1,-9.853696227E-1
2.457865476E2,1.687911510E0,1.058872819E0,-4.314320907E-2
2.460377072E2,-2.502306223E0,-9.528790712E-1,3.802994013E0
2.462893552E2,-7.568703890E-1,2.130528912E-2,-1.560612470E-1
2.465405759E2,1.531850338E0,1.593635678E0,-2.311623812E0
2.467909421E2,-1.988848686E0,4.069310129E-1,2.067145586E0
2.470425901E2,-8.207862377E-1,-1.449824929E0,2.460760921E-1
2.472939939E2,2.667422295E0,2.194444895E0,-4.477838993E0
2.475459165E2,-4.830974340E-1,5.310343504E-1,1.853027463E0
2.477971372E2,-2.514024019E0,-1.471130252E0,9.768475294E-1
2.480478086E2,8.559399843E-1,2.324407101E0,-3.710848808E0
2.482989377E2,1.137702465E0,1.463673353E0,6.977482140E-2
2.485507077E2,-1.166997194E0,-9.629990458E-1,1.615473509E0
2.488022031E2,1.294296384E-1,2.114549875E-1,-2.671683311E0
2.490524136E2,1.612277746E0,-3.195793368E-3,8.516789079E-1
2.493039395E2,-2.470880985E0,2.391518652E-1,2.375007153E0
2.495553738E2,2.269013226E-1,-1.334776402E0,-3.994741738E-1
2.498062283E2,1.629854560E0,1.360875368E0,-9.906959534E-2
2.500575406E2,-4.049602985E0,1.954760253E-1,2.202434301E0
2.503092495E2,-8.948221207E-1,-1.329450011E0,-6.423544884E-1
2.505608365E2,1.562742949E0,1.190965652E0,-1.708151579E0
2.508117215E2,-8.932242393E-1,-3.568635881E-2,1.704423189E0
2.510628506E2,-1.389104843E0,-1.902562261E0,1.062068701E0
2.513138882E2,3.250654459E0,1.310275316E0,-4.928445816E0
2.515647732E2,1.054611802E-1,1.059405446E0,7.318366766E-1
2.518148037E2,-1.419464946E0,-2.415487051E0,2.594451666E0
2.520658413E2,3.316168308E0,1.532382965E0,-4.327104092E0
2.523167569E2,4.910869002E-1,7.685883045E-1,5.992112756E-1
2.525677029E2,-2.994458437E0,5.427522659E-1,2.615756989E0
2.528180996E2,2.114549875E-1,7.099987864E-1,-2.316950083E0
2.530681912E2,1.133441329E0,1.121190786E0,2.652508616E-1
2.533194119E2,-2.976881504E0,-6.514092088E-1,3.597398043E0
2.535707547E2,-1.017327547E0,-1.448759735E-1,-8.639294505E-1
2.538217007E2,1.809884310E0,6.205165386E-1,-1.880191714E-1
2.540732266E2,-2.400040865E0,9.603359103E-1,1.553155541E0
2.543245694E2,-1.254881501E0,-1.025849700E0,-2.242381722E-1
2.545760431E2,3.596332788E0,1.361407995E0,-3.075951099E0
2.548277521E2,-8.532768488E-1,2.817624509E-1,1.781654835E0
2.550793695E2,-1.993642449E0,-1.209075212E0,1.223988891E0
2.553306513E2,3.167563915E0,1.004544377E0,-4.510862350E0
2.555815058E2,8.181231022E-1,5.528722405E-1,3.675162494E-1
2.558332453E2,-1.470597625E0,-6.167881489E-1,2.017078161E0
2.560844049E2,1.830124378E0,1.462608099E0,-3.375290394E0
2.563360224E2,3.121224880E0,6.013417840E-1,7.185208797E-1
2.565871820E2,-3.019492149E0,1.005077004E0,3.012035131E0
2.568390131E2,-7.696535587E-1,3.020024598E-1,-9.699232578E-1
2.570897150E2,9.986854196E-1,8.271778226E-1,4.154531285E-2
2.573406610E2,-2.816026688E0,-5.949501991E-1,4.150270462E0
2.575923090E2,-6.066681147E-1,-9.182579517E-1,-6.066681147E-1
2.578436212E2,9.267801046E-2,1.767806411E0,-8.016114831E-1
2.580947809E2,-1.589907169E0,-6.977482140E-2,1.559547186E0
2.583460321E2,-7.494135499E-1,-1.128115058E0,-2.407497615E-1
2.585964594E2,2.523611546E0,1.096689701E0,-3.691141307E-1
2.588477106E2,1.113201380E-1,2.051166773E0,-9.640643001E-2
2.590994501E2,-1.004544377E0,-5.379585624E-1,-3.020024598E-1
2.593503046E2,1.503088117E0,1.245826840E0,-5.731122494E-1
2.596014032E2,-2.029328793E-1,5.512743592E-1,7.366303802E-1
2.598524408E2,-1.743305326E0,-3.619768620E0,2.434129268E-1
2.601041193E2,1.301753163E0,4.799016416E-1,-1.193096191E-1
2.603553705E2,1.741707325E-1,-4.532700181E-1,1.047687650E0
2.606067133E2,-1.492435455E0,-2.337722778E0,2.412823915E0
2.608583307E2,-1.037567616E0,-7.669904083E-2,-2.412824035E-1
2.611097345E2,2.712695837E0,1.356614232E0,-2.064482450E0
2.613611078E2,-8.863000274E-1,-4.767058492E-1,2.875148773E0
2.616120539E2,-2.077798367E0,-7.685883045E-1,1.756621122E0
2.618633051E2,2.825081348E0,1.303351045E0,-6.468818188E0
2.621145563E2,2.306297570E-1,9.161274433E-1,7.563377619E-1
2.623657465E2,-2.038916111E0,-7.696535587E-1,1.191498280E0
2.626168451E2,1.345429063E0,1.161670923E0,-3.674629688E0
2.628681879E2,1.537176609E0,4.878911078E-1,-2.024002373E-2
2.631190119E2,-1.912682295E0,3.659183383E-1,2.299373388E0
2.633695001E2,1.551557660E0,2.418150306E-1,-2.063949823E0
2.636205377E2,1.970206618E0,1.886050701E0,-2.450108230E-1
2.638719721E2,-1.842907548E0,-5.837649107E-1,3.488208532E0
2.641231317E2,9.587380104E-3,-1.944107562E-1,-3.105245829E-1
2.643742609E2,1.379517436E0,2.394181967E0,-1.742240071E0
2.646255121E2,-1.691639900E0,-1.310275346E-1,1.283643723E0
2.648771295E2,-1.660747290E0,-8.277105093E-1,1.128115058E0
2.651284113E2,2.145442724E0,1.745968461E0,-4.870388985E0
2.653796625E2,-7.723167539E-2,9.246495366E-1,8.617989421E-1
2.656309748E2,-2.167813063E0,-1.025849700E0,1.018392801E0
2.658818903E2,-2.029328793E-1,2.417084932E0,-3.276753426E0
2.661330499E2,9.427590370E-1,4.729774296E-1,2.982740402E-1
2.663842401E2,-2.615756989E0,5.438175201E-1,1.994175076E0
2.666353693E2,-4.942827225E-1,1.002946496E0,-1.455151200E0
2.668859796E2,7.126619220E-1,1.473260760E0,3.163835406E-1
2.671368646E2,-2.941195250E0,-1.438107044E-1,3.074353218E0
2.673882990E2,-6.018744037E-2,-9.363674521E-1,-3.169161677E-1
2.676395197E2,1.061536074E0,4.532700181E-1,-2.490588188E0
2.678905573E2,-1.382713318E0,2.657834888E-1,2.275404930E0
2.681419916E2,-1.990979314E0,-9.885654449E-1,1.015729666E0
2.683930597E2,1.549427152E0,2.232794285E0,-4.125236511E0
2.686444330E2,-4.969458580E-1,9.598032832E-1,7.344998717E-1
2.688955927E2,-1.345961690E0,-1.242630959E0,1.218662500E0
2.691467829E2,1.670334697E0,1.657551527E0,-4.085289001E0
2.693977899E2,1.112668753E0,2.854908705E-1,1.454086006E-1
2.696490106E2,-2.197640657E0,-1.629854590E-1,2.219478607E0
2.699005060E2,1.590972424E0,4.474110603E-1,-2.984338284E0
2.701518183E2,1.581917763E0,2.977414131E-1,2.657834888E-1
2.704030695E2,-2.153432131E0,-2.120409012E0,2.744121313E0
2.706547174E2,-5.182511806E-1,2.290318608E-1,-1.068460226E0
2.709058466E2,1.089232922E0,1.206411958E0,-2.418150306E-1
2.711568231E2,-2.839462519E0,-8.490157723E-1,3.377420902E0
2.714083185E2,-7.888283134E-1,-2.332929224E-1,-6.130596995E-1
2.716598749E2,3.095125914E0,6.008091569E-1,-1.544100881E0
2.719111243E2,-1.224521518E0,3.584614992E-1,1.949966550E0
2.721625586E2,-8.159925938E-1,-1.080710769E0,-4.527373984E-2
2.724140845E2,2.657302141E0,1.597364068E0,-3.511644363E0
2.726651221E2,-4.282363057E-1,-1.438106969E-2,1.290567875E0
2.729162208E2,-2.653041124E0,-1.015197039E0,1.381115317E0
2.731675940E2,2.379268169E0,1.555818796E0,-5.102616787E0
2.734185096E2,2.876214087E-1,7.669904083E-2,-3.121224940E-1
2.736700355E2,-1.515338659E0,-4.079962969E-1,2.355832338E0
2.739214393E2,4.442152679E-1,1.206411958E0,-3.301787138E0
2.741727820E2,1.402420640E0,4.900216311E-2,-3.147856593E-1
2.744236670E2,-2.391518593E0,5.001416802E-1,3.640541315E0
2.746746741E2,5.848301649E-1,6.982808709E-1,-1.353418469E0
2.749258643E2,2.661030531E0,9.113337398E-1,-3.089267015E-1
2.751765967E2,-3.667172909E0,2.050634146E0,4.330299854E0
2.754281836E2,-2.083124638E0,-2.545982003E-1,-2.769687586E-2
2.756790687E2,2.494849443E0,-1.528654546E-1,-2.466619730E0
2.759299842E2,-1.443965912E0,-6.476807594E-1,2.520948410E0
2.761812354E2,-1.538774490E0,-1.287904739E0,4.085289240E-1
2.764323035E2,2.186987877E0,1.396029115E0,-4.836300850E0
2.766837073E2,-6.972155571E-1,3.158509135E-1,3.139867067E0
2.769348670E2,-1.003479123E0,-1.414138556E0,7.478156686E-1
2.771863929E2,1.348624825E0,2.065015078E0,-4.736166000E0
2.774377662E2,3.472762108E-1,1.310275316E0,-4.591289759E-1
2.776891395E2,1.592570394E-1,-2.007490873E0,2.624811649E0
2.779399024E2,1.272458434E0,1.771534801E0,-3.094060659E0
2.781913062E2,1.839711666E0,7.989482954E-3,1.906823367E-1
2.784423438E2,-2.803776026E0,1.725728363E-1,4.029362679E0
2.786935035E2,-4.548679292E-1,3.595267534E-1,7.563377917E-2
2.789449073E2,5.736449361E-1,1.317732096E0,-2.252501726E0
2.791958533E2,-2.115615129E0,1.203748807E-1,4.346811771E0
2.794471351E2,-7.765777707E-1,-4.079962969E-1,-3.419498801E-1
2.796986609E2,2.777144432E0,1.486043930E-1,-1.792307496E0
2.799495765E2,-1.519599795E0,-2.545982003E-1,2.257827997E0
2.802007667E2,-1.797101140E0,-1.248489976E0,4.788363874E-1
2.804519568E2,2.389920712E0,1.870071769E0,-5.529788017E0
2.807028724E2,-5.880259871E-1,7.190535069E-1,-3.813646734E-1
2.809540320E2,-1.119592905E0,-1.318264723E0,1.790709496E0
2.812050086E2,9.315737486E-1,1.248489976E0,-3.660248756E0
2.814563514E2,1.984055042E0,6.546050310E-1,3.222424984E-1
2.817077247E2,-2.418683052E0,2.988066673E-1,3.089267015E0
2.819594031E2,1.311873198E0,-6.604639888E-1,-1.517469168E0
2.822107459E2,9.177253246E-1,1.714543104E0,-2.322276533E-1
2.824618140E2,-2.772350788E0,-1.274588943E0,3.136138439E0
2.827134314E2,-1.549959779E-1,-7.595335841E-1,4.900216311E-2
2.829646522E2,2.284992218E0,1.524926066E0,-1.037567616E0
2.832160560E2,-1.474326015E0,7.099987864E-1,2.371811390E0
2.834662391E2,-8.074704409E-1,-1.194161415E0,-8.202536404E-2
2.837173682E2,1.380582690E0,1.165399313E0,-3.756122589E0
2.839673987E2,-9.070726633E-1,1.262338310E-1,2.684466362E0
2.842177649E2,-1.655421019E0,-7.824367285E-1,-3.462109342E-2
2.844680091E2,2.310025930E0,1.144093990E0,-3.796602488E0
2.847195350E2,1.495631337E0,7.451524734E-1,6.279733777E-1
2.849707557E2,-1.830657005E0,6.386260390E-1,1.729989529E0
2.852222510E2,7.872304320E-1,3.733751774E-1,-2.508697748E0
2.854737769E2,2.887399197E0,2.775014043E-1,7.765777707E-1
2.857255774E2,-3.512709618E0,5.294364095E-1,3.404052496E0
2.859765197E2,-9.076052904E-1,1.187769845E-1,-8.570052385E-1
2.862282897E2,2.280731201E0,1.142496109E0,-1.736381054E-1
2.864793578E2,-3.173422813E0,4.527373984E-2,1.896703362E0
2.867296630E2,-2.239185810E0,1.091363430E0,-1.441835403E0
2.869808837E2,1.575526118E0,2.560895681E0,2.508697808E-1
2.872324401E2,-8.458199501E-1,-4.484763443E-1,-1.118527725E-2
2.874839049E2,1.098287702E0,-8.021441102E-1,-3.909520507E-1
2.877354003E2,1.829059124E0,1.594168305E0,6.125270575E-2
2.879870177E2,-9.475527406E-1,-6.029396653E-1,2.055960417E0
2.882380553E2,-1.040763378E0,-1.655421019E0,1.628256679E0
2.884894286E2,3.789678335E0,7.781757116E-1,-4.914597511E0
2.887407103E2,6.838997602E-1,5.305017233E-1,3.190467060E-1
2.889923278E2,-2.099103689E0,-6.444849968E-1,1.600027204E0
2.892437316E2,1.723065257E0,1.490304947E0,-2.471946239E0
2.894940978E2,2.159823656E0,3.669835925E-1,8.681905270E-2
2.897455321E2,-2.177933216E0,-3.675162420E-2,3.431216717E0
2.899958983E2,7.435545921E-1,4.548679292E-1,-1.537176609E0
2.902476989E2,7.696535587E-1,1.241565704E0,-3.174487948E-1
2.904988890E2,-2.460760832E0,-1.406681657E0,5.530320644E0
2.907500182E2,-2.119343519E0,-2.775014043E-1,-1.636778831E0
2.910013610E2,4.101268202E-2,8.868326545E-1,-3.302852392E0
2.912523070E2,-3.765709996E-1,-6.556702852E-1,1.845570683E0
2.915027343E2,-1.587244034E0,-1.491370201E0,1.919606566E0
2.917540160E2,1.577656627E0,1.931324482E0,-5.869074345E0
2.920058165E2,2.572613657E-1,1.304416299E0,8.820389509E-1
2.922576476E2,-1.785383224E0,-6.721818447E-1,1.914280176E0
2.925087462E2,7.584682703E-1,1.226119399E0,-3.359844208E0
2.927590209E2,2.765959263E0,-3.089267015E-2,-3.776362538E-1
2.930102416E2,-2.514024019E0,-6.332997084E-1,4.338289261E0
2.932620421E2,-1.703357816E0,8.767126203E-1,-2.780340314E-1
2.935137206E2,1.229847789E0,1.373658538E0,-1.370995402E0
2.937650939E2,-8.271778226E-1,7.526093125E-1,1.581917763E0
2.940159179E2,-3.941478431E-1,-1.250620484E0,3.701793849E-1
2.942662536E2,2.212554216E0,8.735168576E-1,-3.694337130E0
2.945164367E2,-5.842975378E-1,-6.162554622E-1,2.097505808E0
2.947668029E2,-2.304167032E0,-1.119592905E0,1.606418848E0
2.950173241E2,1.299622655E0,2.289253235E0,-4.804342747E0
2.952678734E2,1.157942414E0,1.161670923E0,-2.775014043E-1
2.955191552E2,-1.536111355E0,-9.587380290E-2,1.334776402E0
2.957693688E2,4.117247164E-1,5.518069863E-1,-2.147573233E0
2.960200097E2,1.768871665E0,-1.778991669E-1,3.872236311E-1
2.962711693E2,-2.577407360E0,-1.006674916E-1,3.490339041E0
2.965219018E2,-5.475459099E-1,4.868258536E-1,-7.584682703E-1
2.967731835E2,2.523611546E0,1.389637470E0,-1.267132044E0
2.970233971E2,-1.992577195E0,1.912149638E-1,3.033873081E0
2.972735802E2,-4.287689328E-1,-9.539443254E-1,3.222424984E-1
2.975238244E2,2.976348877E0,3.259709179E-1,-2.537459850E0
2.977739464E2,-9.592706561E-1,-3.137203753E-1,1.861016989E0
2.980242211E2,-2.608299971E0,-6.391586661E-1,1.589374542E0
2.982742516E2,1.502022892E-1,2.335059643E0,-5.040831566E0
2.985244042E2,7.243798375E-1,5.438175201E-1,-2.242381722E-1
2.987746178E2,-1.443433285E0,-2.013349831E-1,1.689509392E0
2.990247704E2,8.410263062E-1,6.359629035E-1,-2.495382071E0
2.992748620E2,9.374327064E-1,6.918892860E-1,1.177117229E-1
2.995251366E2,-4.041613579E0,-1.280980468E0,2.833070755E0
2.997754113E2,-1.161138266E-1,-2.018676102E-1,-1.645833552E-1
